subject_id,timestamp_s,activity_id,heart_rate_bpm,hand_temp_c,hand_acc16_x_ms2,hand_acc16_y_ms2,hand_acc16_z_ms2,hand_acc6_x_ms2,hand_acc6_y_ms2,hand_acc6_z_ms2,hand_gyro_x_rads,hand_gyro_y_rads,hand_gyro_z_rads,hand_mag_x_ut,hand_mag_y_ut,hand_mag_z_ut,hand_orientation_w,hand_orientation_x,hand_orientation_y,hand_orientation_z,chest_temp_c,chest_acc16_x_ms2,chest_acc16_y_ms2,chest_acc16_z_ms2,chest_acc6_x_ms2,chest_acc6_y_ms2,chest_acc6_z_ms2,chest_gyro_x_rads,chest_gyro_y_rads,chest_gyro_z_rads,chest_mag_x_ut,chest_mag_y_ut,chest_mag_z_ut,chest_orientation_w,chest_orientation_x,chest_orientation_y,chest_orientation_z,ankle_temp_c,ankle_acc16_x_ms2,ankle_acc16_y_ms2,ankle_acc16_z_ms2,ankle_acc6_x_ms2,ankle_acc6_y_ms2,ankle_acc6_z_ms2,ankle_gyro_x_rads,ankle_gyro_y_rads,ankle_gyro_z_rads,ankle_mag_x_ut,ankle_mag_y_ut,ankle_mag_z_ut,ankle_orientation_w,ankle_orientation_x,ankle_orientation_y,ankle_orientation_z
106,3621.5,24,173.0,27.9375,-3.90676,8.58906,-3.28034,-4.05271,8.5758,-3.26754,0.108049,-0.0472012,0.0561103,30.1249,-25.8986,24.0158,0.583166,-0.693297,-0.419909,-0.0541585,33.3125,0.815817,9.9125,-1.48526,0.357897,10.0566,-1.27729,-0.114737,0.00692521,0.0290502,-19.2514,-38.0807,17.5582,0.207907,-0.241198,-0.703121,-0.635782,33.9375,9.72493,0.41061,-2.1186,9.71484,0.52922,-1.5583,0.0739403,0.0109117,-0.0221184,-38.1549,-11.7963,34.3346,0.122862,-0.757472,0.101674,-0.633091
106,3621.51,24,173.0,27.9375,-3.97886,8.51477,-3.16571,-4.06779,8.53064,-3.22212,0.0915058,-0.0377348,0.0461727,30.0028,-26.1402,24.1487,0.582937,-0.693701,-0.419593,-0.053908,33.3125,0.860495,9.80098,-1.25176,0.478618,9.90506,-1.05177,-0.142507,-0.00719892,0.0690757,-18.6156,-37.7174,17.7015,0.207881,-0.241457,-0.702535,-0.63634,33.9375,9.6881,0.524753,-2.11969,9.69997,0.650253,-1.52834,0.0208949,0.00460098,-0.0294069,-38.6776,-10.9965,34.7574,0.122585,-0.757521,0.101416,-0.633126
106,3621.52,24,173.0,27.9375,-3.9416,8.62796,-3.20402,-4.0384,8.50017,-3.28249,0.118832,-0.0519124,0.0602771,29.6252,-25.8717,24.2791,0.58246,-0.694315,-0.41926,-0.0537452,33.3125,0.623403,9.64926,-1.52661,0.537806,9.70866,-1.00736,-0.0739425,0.00790842,0.0603735,-18.7315,-38.0995,17.2799,0.207595,-0.241676,-0.702062,-0.636873,33.9375,9.691,0.447852,-2.00341,9.69979,0.650198,-1.57374,0.017087,0.019284,-0.0363688,-37.7877,-11.4305,33.6263,0.122765,-0.757463,0.101149,-0.633205
106,3621.53,24,173.0,27.9375,-3.86496,8.58978,-3.16426,-4.06842,8.51549,-3.28249,0.132958,-0.0212706,0.0405608,30.1249,-26.1465,24.411,0.582009,-0.694849,-0.419036,-0.0534728,33.3125,0.659975,9.49827,-1.56418,0.430748,9.55816,-1.14316,-0.0270236,-0.0352187,0.0507372,-17.9695,-37.8702,17.7069,0.207724,-0.242087,-0.702034,-0.636705,33.9375,9.61415,0.486937,-2.08162,9.65481,0.54435,-1.54289,0.0116152,0.00665764,-0.0207469,-38.1577,-11.6674,34.3345,0.122892,-0.757425,0.101035,-0.633243
106,3621.54,24,173.0,27.9375,-3.75105,8.66478,-3.1628,-4.0075,8.60565,-3.29785,0.0597447,-0.0150803,0.0389688,30.8643,-25.6896,24.4067,0.582011,-0.695123,-0.418622,-0.0531206,33.3125,0.465871,9.46044,-1.68373,0.324061,9.4378,-1.24866,-0.0611107,-0.0302435,0.0453641,-19.1265,-37.8273,17.5576,0.207533,-0.242205,-0.701744,-0.637041,33.9375,9.61595,0.410357,-2.00395,9.66979,0.58971,-1.55825,0.00587043,0.00976201,0.0194418,-38.0432,-10.8998,34.6176,0.122497,-0.757431,0.101033,-0.633313
106,3621.55,24,173.0,27.9375,-3.63876,8.70151,-3.19973,-3.9167,8.57486,-3.22237,0.0534096,0.0174731,0.0407726,30.7461,-26.0557,24.278,0.581987,-0.69535,-0.418303,-0.0529315,33.3125,0.509505,9.38631,-1.4891,0.293594,9.3775,-1.24865,-0.0898418,-0.0499366,0.0435034,-19.0056,-37.3159,17.5555,0.207512,-0.242366,-0.701386,-0.637381,33.9375,9.693,0.409241,-1.92597,9.6547,0.574563,-1.57326,0.00554481,-0.0246297,-0.00451376,-38.0385,-11.4167,34.0509,0.122523,-0.757496,0.100997,-0.633235
106,3621.56,24,173.0,27.9375,-3.79098,8.74028,-3.24063,-3.87162,8.54434,-3.20725,0.00902306,0.0261369,0.0496641,30.3736,-26.1598,24.4106,0.581942,-0.695526,-0.418056,-0.0530684,33.3125,0.474722,9.34955,-1.37345,0.38455,9.3469,-1.09816,-0.0899485,-0.00531824,0.0289299,-18.7412,-38.2289,17.9856,0.207615,-0.242506,-0.701144,-0.637561,33.9375,9.64819,0.259531,-2.15704,9.68504,0.529287,-1.4976,0.0285904,0.00372994,-0.0104891,-38.0342,-11.5452,34.1929,0.12253,-0.757469,0.100868,-0.633286
106,3621.57,24,173.0,27.9375,-3.71139,8.55134,-3.08485,-3.99155,8.56037,-3.14676,0.0445233,0.0178235,0.0289695,30.1238,-26.1464,24.5422,0.581705,-0.695755,-0.417991,-0.0531746,33.3125,0.699533,9.61137,-1.52511,0.444908,9.37695,-1.09844,-0.0587679,-0.0522362,0.0394939,-19.251,-37.9516,17.4164,0.207499,-0.242736,-0.700751,-0.637943,33.9375,9.72704,0.181834,-2.00139,9.66976,0.49896,-1.55796,0.0116493,0.0067739,-0.0105051,-38.0393,-11.1579,34.4761,0.122365,-0.757469,0.100806,-0.633329
106,3621.58,24,173.0,27.9375,-3.79044,8.24808,-3.1235,-3.99257,8.40938,-3.11623,0.0366175,0.0370959,0.0353375,30.12,-26.0219,24.8039,0.581378,-0.695981,-0.418033,-0.0534613,33.3125,0.743366,9.61255,-1.33071,0.490343,9.48258,-1.15885,-0.0492411,-0.105981,0.0248424,-18.9986,-37.3157,17.1326,0.207578,-0.243091,-0.700358,-0.638214,33.9375,9.76616,0.295182,-1.96311,9.60959,0.423304,-1.57253,0.0164571,-0.00309592,-0.00585858,-38.4127,-11.5251,34.6171,0.122327,-0.757473,0.10081,-0.633332
106,3621.59,24,173.0,27.9375,-3.7875,8.47605,-3.08574,-3.9471,8.43926,-3.11634,0.0265184,0.0477487,0.0338783,30.2527,-26.6495,24.8075,0.581112,-0.696171,-0.418051,-0.0537452,33.3125,0.743167,9.53724,-1.33047,0.537141,9.61812,-1.02273,-0.0434415,-0.0296852,0.0233531,-18.6163,-37.9756,17.985,0.207814,-0.243446,-0.700233,-0.638139,33.9375,9.65118,0.410763,-2.08077,9.68466,0.514051,-1.58836,0.0285369,0.0259903,0.0172904,-38.5459,-11.261,34.6163,0.122064,-0.757406,0.100788,-0.633466
106,3621.6,24,173.0,27.9375,-3.86041,8.4773,-3.00986,-3.9466,8.46948,-3.0862,0.0382869,0.0348506,0.0737244,30.3814,-26.4088,23.8871,0.581247,-0.69626,-0.417722,-0.0536918,33.3125,0.659628,9.79924,-1.60388,0.537351,9.69365,-1.06785,-0.0977867,-0.0223638,0.0555978,-18.8642,-37.8367,17.2775,0.207692,-0.243687,-0.699739,-0.638628,33.9375,9.72464,0.144508,-2.07837,9.68454,0.514014,-1.61863,0.00820221,-0.0200295,-0.0202184,-38.5448,-11.3902,34.4746,0.122066,-0.75748,0.100723,-0.633387
106,3621.61,24,173.0,27.9375,-3.86415,8.51423,-3.1255,-3.99156,8.43966,-3.02569,0.040181,0.00565612,0.0452319,29.6186,-25.8709,25.0665,0.580794,-0.696557,-0.417799,-0.0541481,33.3125,0.625443,9.9884,-1.48895,0.507405,9.81461,-1.17311,-0.0769418,-0.00247696,0.0485813,-19.3845,-37.9469,17.6975,0.20749,-0.243819,-0.699406,-0.639008,33.9375,9.68621,0.373199,-2.15736,9.69979,0.453592,-1.55797,-0.00842385,0.0195374,-0.023042,-38.6737,-11.2546,34.6158,0.122062,-0.757424,0.100703,-0.633458
106,3621.62,24,173.0,27.9375,-3.78536,8.5902,-3.0476,-4.00713,8.48498,-3.13148,0.0164225,-0.000934469,0.0338461,30.6207,-26.0489,24.4094,0.580955,-0.6966,-0.417524,-0.0539685,33.3125,0.818105,9.91302,-1.40778,0.567937,9.8295,-1.12809,-0.088059,-0.0469498,-0.0132108,-19.0133,-37.5743,18.262,0.207989,-0.244084,-0.699184,-0.638988,33.9375,9.72194,0.259378,-2.19487,9.74491,0.42337,-1.54298,0.0172675,-0.0300425,-0.0147743,-38.3006,-11.017,34.1914,0.121871,-0.757538,0.10068,-0.633362
106,3621.63,24,173.0,27.9375,-3.79606,8.39816,-3.31653,-4.02283,8.45485,-3.1767,-0.0128342,-0.00945899,0.0465584,29.753,-26.1268,24.2804,0.580999,-0.696679,-0.417315,-0.0540945,33.3125,0.626834,9.65004,-1.41039,0.583632,9.88978,-1.08267,-0.0535758,-0.00492379,0.0154882,-18.8685,-37.7077,17.4177,0.207948,-0.244215,-0.698944,-0.639213,33.9375,9.6943,0.446888,-1.88761,9.71451,0.468627,-1.63378,0.0450125,-0.0415906,-0.0140218,-38.5409,-11.6483,34.3331,0.121874,-0.757669,0.100567,-0.633223
106,3621.64,24,173.0,27.9375,-4.01691,8.28777,-3.12703,-4.05323,8.42486,-3.1766,0.0471653,-0.00284482,0.0358571,29.9867,-25.5182,25.0636,0.580647,-0.696938,-0.417344,-0.0543157,33.3125,0.624646,9.68718,-1.48799,0.583614,9.84443,-1.03747,-0.0905058,-0.0174089,0.0201178,-18.7408,-38.0998,17.8438,0.208166,-0.24445,-0.698669,-0.639354,33.9375,9.80258,0.523399,-2.04133,9.68444,0.634976,-1.64929,0.0202987,0.0402263,-0.0424659,-38.9365,-10.5961,35.1815,0.121427,-0.757666,0.100257,-0.633362
106,3621.65,24,132.0,27.9375,-3.86522,8.55184,-3.16413,-4.02258,8.48505,-3.17676,0.0352826,-0.0251249,0.0241199,29.8656,-25.512,24.6701,0.580494,-0.69713,-0.417237,-0.0543165,33.3125,0.545285,9.7996,-1.60596,0.538286,9.78412,-1.00714,-0.100079,-0.0176435,0.0291806,-19.3815,-37.6887,17.273,0.208031,-0.244523,-0.698167,-0.639918,33.9375,9.72623,0.448257,-2.08023,9.69971,0.589679,-1.58868,0.0425446,-0.0144311,0.00828307,-38.0385,-11.4167,34.0509,0.121343,-0.757707,0.100137,-0.633348
106,3621.66,24,132.0,27.9375,-3.91023,8.66394,-3.39611,-4.03765,8.51534,-3.20702,0.0364313,-0.0312433,0.0139102,29.609,-24.7539,24.4036,0.58038,-0.697295,-0.417129,-0.0542285,33.3125,0.630365,9.68847,-1.29429,0.50782,9.72382,-1.00713,-0.0856261,0.00488442,0.0139375,-19.5212,-37.426,17.6936,0.207982,-0.244534,-0.69784,-0.640286,33.9375,9.80258,0.523399,-2.04133,9.69982,0.559466,-1.55831,0.0298519,0.0144936,0.0108841,-38.1483,-11.6654,35.1855,0.121248,-0.757652,0.100067,-0.633442
106,3621.67,24,132.0,27.9375,-3.98394,8.55137,-3.31986,-4.08223,8.57608,-3.192,0.0715449,-0.0331424,0.0435535,29.9938,-25.6431,24.4082,0.580257,-0.697574,-0.41686,-0.0540251,33.3125,0.747841,9.57593,-1.17563,0.492479,9.64835,-0.977035,-0.0908672,-0.00240622,0.0443645,-19.0036,-37.445,17.5563,0.207982,-0.244727,-0.697497,-0.640586,33.9375,9.8367,0.524125,-2.15675,9.72969,0.619917,-1.60407,-0.0653357,-0.0041253,0.00336937,-38.2963,-11.1455,34.3334,0.121396,-0.757633,0.100243,-0.633408
106,3621.68,24,132.0,27.9375,-3.86523,8.7412,-3.20326,-4.08273,8.56094,-3.23727,0.0309278,-0.0432242,0.00760242,29.9911,-25.5188,24.5387,0.58024,-0.6977,-0.416702,-0.0538176,33.3125,0.632155,9.50072,-1.2162,0.477245,9.61819,-0.977031,-0.080893,-0.0470729,0.0272343,-19.1347,-37.4403,17.6964,0.208198,-0.245015,-0.697172,-0.640759,33.9375,9.76266,0.258177,-2.07868,9.69989,0.559485,-1.54318,0.00858012,0.0159857,0.0037525,-38.6678,-11.3828,34.8997,0.121306,-0.757579,0.100201,-0.633497
106,3621.69,24,132.0,27.9375,-3.89686,8.66729,-3.01105,-4.12794,8.57635,-3.25236,0.105212,-0.0388145,0.0287693,30.242,-25.7803,24.671,0.579981,-0.698062,-0.416498,-0.0534952,33.3125,0.74441,9.57516,-1.29185,0.491441,9.52767,-1.02272,-0.10504,-0.0256546,0.0208182,-18.76,-37.4548,18.4041,0.208735,-0.245376,-0.696972,-0.640664,33.9375,9.6901,0.486141,-2.04225,9.66984,0.544353,-1.54297,-0.0116327,0.0471029,0.0323497,-38.5413,-11.7779,34.0496,0.121552,-0.757344,0.100322,-0.633712
106,3621.7,24,132.0,27.9375,-3.87164,8.5881,-3.35679,-4.05208,8.57586,-3.19203,0.0613254,-0.0274698,0.0135216,30.3648,-25.9107,25.0652,0.579762,-0.698297,-0.41642,-0.0533959,33.3125,0.705152,9.57502,-1.33128,0.50668,9.57293,-1.03779,-0.0724683,-0.0191773,0.0271425,-18.7343,-37.4542,16.8532,0.208638,-0.245496,-0.696608,-0.641045,33.9375,9.61485,0.410679,-2.04255,9.65488,0.559494,-1.5278,0.0151775,-0.018256,0.0144771,-38.4166,-11.267,34.7586,0.121347,-0.757403,0.100314,-0.633682
106,3621.71,24,132.0,27.9375,-3.79312,8.43677,-3.23964,-3.99193,8.51506,-3.14666,0.0671593,-0.0156904,0.0423884,30.2437,-25.9045,24.6718,0.579607,-0.698563,-0.416202,-0.0532916,33.3125,0.741278,9.68734,-1.40844,0.5065,9.57298,-1.06801,-0.0569656,-0.0310994,0.0126364,-19.6609,-37.1634,18.1141,0.208812,-0.245718,-0.696416,-0.641112,33.9375,9.72112,0.5258,-2.27372,9.65494,0.529262,-1.51257,0.0317121,-0.00746997,0.0146217,-38.5405,-11.5187,34.6166,0.12124,-0.757408,0.100272,-0.633703
106,3621.72,24,132.0,27.9375,-3.67146,8.47584,-3.00702,-3.97775,8.43942,-3.17671,0.0645224,-0.0288997,0.020202,29.8684,-25.6364,24.5397,0.57942,-0.698817,-0.416057,-0.0531386,33.3125,0.627779,9.57499,-1.37141,0.521835,9.63333,-1.08304,-0.0636634,-0.0656994,0.0190177,-18.8565,-37.5783,16.571,0.208766,-0.245921,-0.695963,-0.641541,33.9375,9.65118,0.410763,-2.08077,9.62466,0.604806,-1.5732,-0.0401802,-0.0185965,0.0245688,-38.4287,-11.1402,33.9074,0.121295,-0.757425,0.100459,-0.633642
106,3621.73,24,132.0,27.9375,-3.79017,8.28602,-3.12362,-3.8867,8.40866,-3.07103,0.0228394,-0.0303014,0.0262971,29.6236,-25.9955,24.6736,0.579268,-0.699014,-0.415925,-0.0532355,33.3125,0.556523,9.72688,-1.21831,0.522459,9.61807,-0.962191,-0.0765656,-0.0284251,0.036458,-18.8752,-37.5788,17.6989,0.208972,-0.246238,-0.695716,-0.641621,33.9375,9.61076,0.259768,-2.15743,9.63986,0.55949,-1.52772,0.0401553,-0.0383915,0.0371984,-38.4244,-10.7508,35.0416,0.120647,-0.757595,0.10044,-0.633566
106,3621.74,24,132.0,27.9375,-3.83117,8.39912,-3.24008,-3.87289,8.31789,-3.13125,-0.00229647,-0.0280335,0.0335624,30.2442,-25.7806,24.4085,0.57947,-0.699049,-0.415604,-0.0530852,33.3125,0.707838,9.72615,-1.25428,0.477905,9.69362,-0.94659,-0.109877,-0.030216,0.0398951,-19.5095,-37.4257,16.9886,0.208822,-0.246318,-0.695158,-0.642244,33.9375,9.61045,0.411963,-2.19696,9.68473,0.51407,-1.57322,-0.0494219,0.0110897,0.033488,-38.2795,-11.7892,34.6178,0.120955,-0.757464,0.100743,-0.633616
106,3621.75,24,132.0,27.9375,-3.78884,8.28635,-3.08512,-3.88821,8.33306,-3.17657,-0.00772945,0.0315518,0.014525,29.502,-26.1132,24.5433,0.579273,-0.699157,-0.41566,-0.0533845,33.3125,0.704207,9.65006,-1.37027,0.522315,9.7088,-1.08283,-0.0604744,-0.00674788,0.0226619,-18.8744,-37.3206,17.4155,0.208884,-0.24647,-0.695012,-0.642323,33.9375,9.83862,0.257381,-2.03931,9.68467,0.529176,-1.58841,0.0374807,0.0387274,0.0221598,-38.4201,-11.3973,34.1914,0.120863,-0.757327,0.100687,-0.633806
106,3621.76,24,132.0,27.9375,-3.82957,8.43739,-3.2017,-3.96457,8.3335,-3.2973,0.0315168,-0.0371678,0.0144904,29.6186,-25.6229,24.6713,0.579066,-0.699393,-0.415556,-0.0533466,33.3125,0.740433,9.80004,-1.44754,0.582205,9.69361,-1.11346,-0.0431918,0.0163833,0.0168166,-18.4672,-38.238,17.0005,0.208791,-0.246522,-0.69494,-0.642411,33.9375,9.64638,0.33611,-2.23472,9.6846,0.529157,-1.60354,0.00201171,-0.00539618,0.0318933,-37.896,-12.1967,33.9105,0.121298,-0.757233,0.100846,-0.63381
106,3621.77,24,132.0,27.9375,-3.79499,8.36055,-3.2779,-3.90429,8.30288,-3.26709,0.0270179,-0.028811,-0.0128733,29.7468,-25.7541,24.4094,0.579012,-0.699506,-0.41547,-0.0531157,33.3125,0.749583,9.80211,-1.13761,0.567997,9.75391,-1.03763,-0.0705473,0.0154993,-0.0175078,-19.3714,-37.4302,16.4256,0.208464,-0.246261,-0.694544,-0.643046,33.9375,9.65168,0.296536,-2.04147,9.69975,0.514073,-1.5733,0.0191057,0.0224721,0.0353506,-38.9248,-11.3704,34.7569,0.121099,-0.757148,0.100914,-0.633939
106,3621.78,24,132.0,27.9375,-3.87351,8.51189,-3.39505,-3.94887,8.36363,-3.25208,0.060819,0.0000473628,-0.0190206,29.623,-25.6235,24.1464,0.578861,-0.699646,-0.415479,-0.0528386,33.3125,0.784167,9.76356,-1.25302,0.538472,9.79919,-0.991987,-0.119907,0.0211461,0.0166472,-19.3697,-38.4629,17.2775,0.208392,-0.246187,-0.694133,-0.64354,33.9375,9.68321,0.221967,-2.23363,9.69988,0.54436,-1.54313,0.0158705,-0.0528281,0.0488152,-38.7991,-11.5067,34.332,0.120985,-0.757264,0.101062,-0.633799
106,3621.79,24,132.0,27.9375,-3.90301,8.55213,-3.1647,-3.9937,8.39417,-3.237,0.0539079,-0.0163772,-0.0338463,29.8656,-25.512,24.6701,0.57866,-0.69977,-0.415579,-0.052623,33.3125,0.696599,9.79886,-1.64193,0.507826,9.73893,-1.0222,-0.0781672,0.0116304,0.00670063,-18.7456,-37.3254,17.4164,0.208571,-0.246252,-0.694021,-0.643578,33.9375,9.6875,0.410847,-2.11899,9.69968,0.498929,-1.58839,0.0146012,-0.0122304,0.0421029,-38.0405,-11.0287,34.6178,0.120644,-0.757303,0.10118,-0.633798
106,3621.8,24,132.0,27.9375,-3.94455,8.58935,-3.28091,-3.99269,8.53007,-3.2524,0.0708381,-0.0236495,-0.00544959,29.7451,-25.6299,24.4086,0.578471,-0.699987,-0.415509,-0.0523655,33.3125,0.667535,9.7634,-1.33258,0.477851,9.78432,-1.05211,-0.0371397,0.0447463,-0.0032193,-18.6094,-37.2008,16.8526,0.208452,-0.246117,-0.694015,-0.643675,33.9375,9.53461,0.222595,-2.19657,9.66957,0.468654,-1.60327,0.0457839,-0.0208947,0.0216225,-38.4311,-10.8817,34.1908,0.120256,-0.757397,0.101162,-0.633762
106,3621.81,24,132.0,27.9375,-3.94401,8.66523,-3.28116,-4.02245,8.54542,-3.2222,0.046862,-0.053795,0.00830488,29.9899,-25.2707,24.2747,0.578546,-0.700116,-0.415236,-0.0519696,33.3125,0.669325,9.57565,-1.25449,0.417757,9.73909,-0.991433,-0.010748,0.058613,0.00211918,-18.6214,-37.3303,17.6993,0.208533,-0.246116,-0.694235,-0.643412,33.9375,9.83921,0.371287,-2.04001,9.65479,0.4536,-1.5426,0.0211828,-0.0443589,0.0244887,-38.5522,-11.2623,34.0489,0.12017,-0.757503,0.101242,-0.633639
106,3621.82,24,132.0,27.9375,-3.90435,8.55179,-3.20321,-4.00826,8.51504,-3.29765,0.0785488,-0.0552036,-0.032271,30.1205,-25.898,24.5407,0.578438,-0.7003,-0.415141,-0.0514504,33.3125,0.71097,9.61396,-1.1377,0.463619,9.78416,-0.916016,-0.0339126,-0.00588149,-0.0115719,-19.2476,-37.5642,16.8502,0.208469,-0.24606,-0.694049,-0.643654,33.9375,9.61147,0.183509,-2.11836,9.72972,0.468686,-1.58845,0.0593642,-0.04828,0.0143118,-38.0354,-11.416,34.3346,0.120012,-0.757647,0.101173,-0.633507
106,3621.83,24,132.0,27.9375,-3.86228,8.59045,-3.08724,-3.97774,8.52995,-3.26751,0.0723141,-0.0170224,-0.0386403,30.483,-25.5446,25.194,0.578162,-0.700481,-0.41525,-0.0512091,33.3125,0.755401,9.84106,-0.944028,0.478895,9.69338,-0.780358,-0.0263115,-0.00453238,0.00137079,-19.1047,-38.3431,16.7147,0.208385,-0.246106,-0.693803,-0.643929,33.9375,9.6848,0.525716,-2.2355,9.7298,0.529204,-1.57351,0.0295449,-0.0234471,0.0317965,-38.1549,-11.7963,34.3346,0.120116,-0.757657,0.101223,-0.633469
106,3621.84,24,132.0,27.9375,-3.79312,8.62613,-3.27877,-4.02245,8.5605,-3.23733,0.0219289,0.0205029,-0.0405937,30.1159,-25.4016,24.2753,0.578212,-0.700405,-0.415339,-0.0509593,33.3125,0.680117,9.76625,-0.906428,0.479645,9.76878,-0.734806,-0.0492044,0.00867345,-0.00435818,-19.5106,-37.813,17.4138,0.20845,-0.24612,-0.693603,-0.644119,33.9375,9.684,0.373842,-2.23456,9.66948,0.619867,-1.63402,0.0401447,0.0151278,0.0274597,-38.6764,-11.1257,34.6157,0.119838,-0.757629,0.101127,-0.633569
106,3621.85,24,132.0,27.9375,-3.79205,8.58852,-3.24013,-4.00725,8.59058,-3.25252,-0.0152033,-0.00183588,-0.0384574,30.7373,-25.8066,24.9326,0.578362,-0.700274,-0.415372,-0.0507904,33.3125,0.708137,9.83911,-1.25465,0.509547,9.76876,-0.765212,-0.0594168,-0.0007526,-0.0226754,-19.1305,-37.5693,17.5561,0.208764,-0.246177,-0.69346,-0.644149,33.9375,9.65118,0.410763,-2.08077,9.65445,0.574489,-1.6338,-0.00405631,0.0190474,0.018715,-38.1561,-11.6671,34.4763,0.120051,-0.757518,0.101187,-0.633653
106,3621.86,24,132.0,28.0,-3.67414,8.66453,-3.12316,-3.99281,8.53006,-3.2675,-0.000679018,0.00224041,-0.0214242,29.9983,-25.8917,24.2785,0.578462,-0.700208,-0.415364,-0.0506407,33.3125,0.667236,9.65044,-1.33222,0.553766,9.75375,-0.901536,0.00530228,0.00272229,0.00940811,-18.6082,-37.5881,17.1368,0.20883,-0.246368,-0.693541,-0.643968,33.9375,9.68821,0.334588,-2.07992,9.65455,0.498901,-1.60328,0.00013204,-0.0117219,0.0412819,-38.9174,-11.4983,35.1826,0.119955,-0.757519,0.10136,-0.633642
106,3621.87,24,132.0,28.0,-3.78804,8.58953,-3.12462,-3.93253,8.49945,-3.23729,-0.00321542,-0.00103683,-0.0173851,30.1155,-25.7734,24.9337,0.578364,-0.700246,-0.415426,-0.0507199,33.3125,0.700875,9.68694,-1.48661,0.507448,9.69368,-1.03744,0.053774,0.0649126,-0.0158469,-18.7241,-37.9703,16.7152,0.208482,-0.246199,-0.693796,-0.64387,33.9375,9.6897,0.410204,-2.04178,9.70012,0.499059,-1.48244,-0.000784176,-0.0155266,0.0609372,-37.9077,-11.4224,34.3351,0.1199,-0.757487,0.101601,-0.633651
106,3621.88,24,132.0,28.0,-3.71139,8.55134,-3.08485,-3.96166,8.54503,-3.16186,-0.0182847,0.0316831,-0.0340732,29.7307,-25.1321,25.3243,0.57808,-0.700203,-0.415836,-0.0511847,33.3125,0.685935,9.8052,-0.712844,0.507939,9.79937,-1.06737,0.0480277,0.0851737,-0.00639371,-18.6071,-37.2008,16.7116,0.208085,-0.246002,-0.694085,-0.643762,33.9375,9.72693,0.371999,-2.04116,9.72985,0.498973,-1.55828,0.0113475,-0.0318712,0.0198535,-38.3158,-10.3729,34.0487,0.11945,-0.757623,0.101662,-0.633564
106,3621.89,24,132.0,28.0,-3.97672,8.43957,-3.08845,-4.00789,8.4849,-3.22208,0.00489756,0.0313805,-0.0296023,30.3675,-25.7871,24.5396,0.578151,-0.700095,-0.415934,-0.0510573,33.3125,0.939658,9.61325,-1.13355,0.660045,9.75329,-0.73594,-0.0882328,-0.0175133,0.0247287,-19.3709,-38.0756,16.9933,0.208085,-0.246192,-0.6936,-0.644213,33.9375,9.80438,0.446819,-1.96366,9.69975,0.529198,-1.57335,-0.0106366,0.0251251,0.0321462,-38.6698,-11.5127,34.4743,0.119594,-0.757478,0.101785,-0.633691
106,3621.9,24,132.0,28.0,-3.78991,8.51332,-3.16287,-3.97812,8.45447,-3.23715,-0.0308427,-0.0105114,-0.0397774,29.9894,-25.6426,24.9331,0.578155,-0.700004,-0.416075,-0.0511144,33.3125,0.691327,9.53425,-1.79605,0.732301,9.57243,-1.03915,0.0379632,-0.0173045,0.0270577,-18.8798,-37.5789,17.9809,0.20835,-0.246745,-0.69385,-0.643645,33.9375,9.64697,0.450016,-2.23542,9.69975,0.529198,-1.57335,0.0102117,-0.0429279,0.0441667,-38.6729,-11.5134,34.1906,0.119637,-0.757546,0.10192,-0.63358
106,3621.91,24,132.0,28.0,-3.75025,8.58924,-3.12405,-3.91772,8.46914,-3.23724,-0.00127113,0.0134351,-0.0394537,30.1122,-25.7729,25.3274,0.577918,-0.700039,-0.416323,-0.0512982,33.3125,0.589863,9.65042,-1.37234,0.520384,9.60344,-1.2947,0.0466911,-0.0225808,-0.026326,-19.5063,-37.942,17.2736,0.208238,-0.246733,-0.694074,-0.643445,33.9375,9.68561,0.259294,-2.15666,9.66964,0.514048,-1.58828,0.00898822,-0.0282289,0.0466645,-38.3068,-10.5004,34.6162,0.119111,-0.757662,0.102052,-0.633519
106,3621.92,24,132.0,28.0,-3.67066,8.58966,-3.0074,-3.88757,8.46892,-3.23727,-0.00435674,0.0295139,-0.0607005,30.252,-26.0296,23.8851,0.578259,-0.699738,-0.416405,-0.0508997,33.3125,0.779392,9.68722,-1.40774,0.431108,9.55807,-1.08271,-0.00733952,0.043892,-0.0337475,-18.8583,-38.2238,17.2797,0.208217,-0.246511,-0.69426,-0.643336,33.9375,9.76376,0.257856,-2.04008,9.72975,0.347705,-1.57293,-0.0143725,-0.0381117,0.0331188,-38.5518,-11.1328,34.3325,0.119087,-0.757725,0.102327,-0.633403
106,3621.93,24,132.0,28.0,-3.71219,8.43752,-3.08448,-3.94697,8.51471,-3.17691,-0.0391744,0.0115418,-0.0533794,30.1188,-25.7738,24.54,0.578438,-0.699508,-0.416548,-0.0508476,33.3125,0.87069,9.76566,-0.902973,0.597631,9.52722,-0.872233,-0.0480333,0.0952131,-0.0925945,-18.5944,-38.4914,17.1421,0.208319,-0.246002,-0.694364,-0.643386,33.9375,9.80209,0.219329,-2.00086,9.71447,0.347627,-1.63339,-0.0149565,-0.0335575,0.0741224,-38.9307,-11.2422,34.4731,0.118984,-0.757754,0.10276,-0.633318
106,3621.94,24,132.0,28.0,-3.75666,8.43614,-3.27758,-3.88669,8.4841,-3.1467,-0.0340475,0.0395827,-0.0407089,30.3647,-25.6628,24.67,0.578561,-0.699314,-0.416698,-0.0508975,33.3125,0.760076,9.87975,-0.789185,0.601506,9.76815,-0.478629,0.0008754,0.11969,-0.117853,-18.7187,-37.7119,16.1497,0.20817,-0.245371,-0.694295,-0.643749,33.9375,9.68522,0.183356,-2.15619,9.68481,0.347732,-1.54242,0.0133688,-0.0279518,0.0844901,-38.5455,-11.6493,33.9076,0.119044,-0.757714,0.103118,-0.633296
106,3621.95,24,132.0,28.0,-3.66878,8.47651,-2.93001,-3.84186,8.48373,-3.19205,-0.02352,0.00705832,-0.0441281,30.4896,-25.5455,24.4066,0.578816,-0.699138,-0.416666,-0.0506644,33.3125,0.480445,10.2164,-1.26,0.541603,9.97984,-0.659004,0.0304296,0.143164,-0.137077,-19.0005,-37.1867,17.1318,0.208159,-0.244646,-0.694629,-0.643668,33.9375,9.72273,0.411252,-2.19581,9.72994,0.362886,-1.52757,-0.018005,-0.0213849,0.0632002,-38.1678,-10.8928,34.9009,0.118757,-0.757733,0.103463,-0.633271
106,3621.96,24,132.0,28.0,-3.59963,8.70155,-3.16066,-3.81172,8.45334,-3.16181,-0.00471374,0.00100173,-0.0632968,30.1199,-25.774,24.4087,0.578908,-0.69902,-0.416762,-0.0504577,33.3125,0.207326,9.98997,-1.45781,0.28506,10.1318,-0.959266,-0.000947465,0.197154,-0.134708,-18.6062,-37.7171,17.1376,0.208015,-0.243595,-0.695103,-0.643602,33.9375,9.60966,0.260089,-2.19603,9.72983,0.423348,-1.55804,0.0260116,-0.0541571,0.0354378,-38.1666,-11.022,34.7592,0.118483,-0.757887,0.103559,-0.633124
106,3621.97,24,132.0,28.0,-3.7146,8.66415,-3.20074,-3.90175,8.58982,-3.25262,0.0248821,-0.00464806,-0.0447095,30.4841,-25.5448,25.0628,0.578774,-0.69908,-0.41686,-0.0503477,33.3125,0.523581,9.95396,-1.06476,0.17995,10.132,-0.928406,-0.0658699,0.151038,-0.0972766,-18.8533,-38.0946,16.856,0.207854,-0.242656,-0.695188,-0.643917,33.9375,9.60816,0.184473,-2.23417,9.75974,0.408193,-1.58842,0.00663926,-0.0223838,0.0530151,-38.4143,-11.5255,34.4752,0.118547,-0.757871,0.103793,-0.633092
106,3621.98,24,132.0,28.0,-3.68082,8.66286,-3.31569,-3.90125,8.60497,-3.20735,-0.00177839,0.0105651,-0.0520869,30.1115,-25.401,24.8002,0.5787,-0.699038,-0.417034,-0.0503507,33.3125,0.712911,9.91545,-1.09992,0.315719,9.99553,-0.718046,-0.121604,0.0977957,-0.0696675,-18.5832,-38.6201,16.5789,0.20789,-0.242027,-0.69491,-0.644442,33.9375,9.75956,0.297109,-2.19472,9.69954,0.453517,-1.61851,0.00604457,-0.0156985,0.0672555,-38.4073,-11.265,35.6096,0.118268,-0.757885,0.104033,-0.633088
106,3621.99,24,132.0,28.0,-3.79633,8.54958,-3.35553,-3.88744,8.54437,-3.29784,-0.0120191,-0.00242897,-0.0317502,30.8511,-25.4399,25.5863,0.578618,-0.699042,-0.417131,-0.0504323,33.3125,0.719375,9.76639,-0.866996,0.511227,9.91952,-0.643883,-0.0998702,0.0768587,-0.0145511,-18.9829,-38.3481,17.1385,0.207904,-0.241817,-0.694633,-0.644814,33.9375,9.68361,0.297905,-2.2341,9.69958,0.377911,-1.60313,0.0159935,-0.0509632,0.0701019,-38.3072,-10.63,34.3327,0.117833,-0.758024,0.104315,-0.632957
106,3622.0,24,132.0,28.0,-3.75159,8.5889,-3.16256,-3.94798,8.49951,-3.28258,-0.0156135,0.0249417,-0.0375984,30.1054,-25.0283,24.9292,0.578509,-0.699001,-0.417335,-0.050571,33.3125,0.592151,9.65094,-1.29486,0.525513,9.82897,-0.674458,-0.0467965,0.0111466,-0.039333,-19.4938,-38.458,16.9946,0.207972,-0.241702,-0.694402,-0.645084,33.9375,9.76046,0.258819,-2.15589,9.69952,0.377893,-1.61827,0.0424101,-0.0474477,0.0339684,-38.9221,-11.4993,34.7571,0.1178,-0.758123,0.104382,-0.632833
106,3622.01,24,132.0,28.0,-3.6736,8.74041,-3.12341,-3.91733,8.52953,-3.25247,0.0371019,0.0510961,-0.0327232,29.9849,-25.1461,24.6677,0.578236,-0.699093,-0.417551,-0.0506318,33.3125,0.439892,9.72672,-1.29786,0.403994,9.78417,-0.82498,-0.00457548,0.0179138,-0.00977815,-18.7168,-37.841,16.1505,0.207781,-0.241617,-0.694285,-0.645304,33.9375,9.64599,0.260173,-2.23425,9.71435,0.37784,-1.66375,0.04309,-0.0285094,0.05778,-38.5506,-10.7441,35.183,0.117268,-0.758227,0.104508,-0.632786
106,3622.02,24,132.0,28.0,-3.56344,8.66299,-3.19847,-3.91568,8.69567,-3.22264,0.031026,0.010042,-0.0316211,29.9804,-24.8976,24.7974,0.578053,-0.699178,-0.417661,-0.0506334,33.3125,0.478106,9.76426,-1.29729,0.342719,9.70899,-0.930617,-0.0395174,0.0367686,-0.0473795,-18.7277,-37.5831,16.572,0.207808,-0.24131,-0.694276,-0.64542,33.9375,9.68541,0.221325,-2.15642,9.72951,0.393006,-1.63361,0.00826002,-0.0227219,0.0285963,-38.285,-11.5315,34.6175,0.117454,-0.758224,0.104652,-0.632732
106,3622.03,24,132.0,28.0,-3.5597,8.62605,-3.08283,-3.8706,8.63498,-3.17725,0.0403958,0.0396935,-0.0238567,30.1088,-25.2766,24.9307,0.577779,-0.699298,-0.417825,-0.0507422,33.3125,0.70948,9.91467,-1.21615,0.297127,9.66386,-0.960698,0.0358027,0.0178126,-0.0365528,-18.4758,-37.98,17.281,0.20805,-0.241282,-0.694662,-0.644936,33.9375,9.61186,0.259447,-2.11882,9.71461,0.408164,-1.60331,0.0256926,-0.0110831,0.0350532,-38.2928,-11.0153,34.9006,0.117258,-0.758237,0.104721,-0.632741
106,3622.04,24,132.0,28.0,-3.56184,8.70126,-3.16009,-3.91569,8.60514,-3.13183,0.0297111,0.0245743,-0.0194707,30.493,-25.7939,24.4081,0.577892,-0.699233,-0.417804,-0.0505365,33.3125,0.699632,9.64903,-1.52523,0.35767,9.70898,-0.94582,-0.0510411,-0.0196679,-0.0194808,-20.1563,-37.5311,17.2667,0.208016,-0.241139,-0.694488,-0.645188,33.9375,9.68431,0.221646,-2.19503,9.66971,0.302336,-1.55733,-0.0370546,-0.00300546,0.0475676,-39.0569,-11.2355,34.6145,0.117415,-0.758144,0.105077,-0.632764
106,3622.05,24,132.0,28.0,-3.82235,8.51495,-3.00942,-3.93152,8.57499,-3.19216,-0.00344573,0.0115611,-0.0153103,29.7447,-26.0017,25.067,0.577629,-0.699356,-0.417928,-0.0508123,33.3125,0.633497,9.57629,-1.1777,0.462762,9.66344,-0.931474,-0.0296958,-0.0243949,-0.0257144,-18.593,-37.9749,16.5751,0.20818,-0.241175,-0.694408,-0.645208,33.9375,9.72374,0.182798,-2.1172,9.68441,0.302246,-1.63308,-0.0148992,-0.0290269,0.044231,-38.8049,-11.3785,34.0482,0.117655,-0.758129,0.105372,-0.632689
106,3622.06,24,132.0,28.0,-3.74677,8.51437,-3.00828,-3.94747,8.52974,-3.25244,-0.00337634,0.0595088,0.024676,29.9827,-25.1458,24.9301,0.577425,-0.699448,-0.418007,-0.051209,33.3125,0.786454,9.76408,-1.17554,0.508696,9.66315,-0.795739,-0.0600265,-0.031835,-0.0258086,-18.4704,-37.7217,16.7155,0.208526,-0.241291,-0.694227,-0.645247,33.9375,9.72355,0.144829,-2.11697,9.71433,0.28709,-1.66346,-0.0150888,-0.0600644,0.0297601,-39.3077,-11.2217,35.0391,0.117672,-0.758264,0.10566,-0.632475
106,3622.07,24,132.0,28.0,-3.6875,8.47182,-3.4691,-3.8872,8.48405,-3.2071,-0.0383432,0.0201653,0.0154288,29.9922,-25.7669,24.8027,0.577476,-0.699422,-0.417951,-0.0514644,33.3125,0.745753,9.65072,-1.25335,0.493193,9.63306,-0.84107,-0.0359238,0.066416,-0.0526277,-18.7105,-38.099,16.011,0.208285,-0.240895,-0.694057,-0.645656,33.9375,9.64539,0.146267,-2.23355,9.71445,0.272003,-1.63314,0.0081842,-0.0251482,0.0293611,-38.7987,-11.3771,34.6155,0.117765,-0.758273,0.105858,-0.632414
106,3622.08,24,132.0,28.0,-3.75639,8.28472,-3.23858,-3.90341,8.37842,-3.23706,-0.00370683,0.0243942,0.0252093,29.3648,-25.2371,24.6695,0.577246,-0.699576,-0.417966,-0.0518117,33.3125,0.900898,9.80138,-1.17359,0.582727,9.64814,-0.97758,-0.00941394,0.00912166,-0.0197674,-18.4595,-37.9796,16.2941,0.208225,-0.240888,-0.694033,-0.645704,33.9375,9.79549,0.221256,-2.23247,9.66941,0.347618,-1.63315,0.0252665,0.0280128,0.0417206,-38.2912,-11.0149,35.0424,0.117536,-0.758166,0.105962,-0.632568
106,3622.09,24,132.0,28.0,-3.48866,8.35922,-3.15784,-3.84338,8.33269,-3.22192,-0.0408327,0.0381853,0.00344406,29.7413,-25.7533,25.0655,0.577104,-0.699597,-0.418075,-0.0522346,33.3125,0.671066,9.80183,-1.21648,0.583032,9.73876,-1.02266,-0.0309715,0.0731673,-0.0256898,-18.4568,-37.8504,16.0113,0.207897,-0.240589,-0.693965,-0.645995,33.9375,9.60506,0.223405,-2.35021,9.68444,0.377871,-1.63332,-0.0189411,0.00585475,0.0264295,-38.1612,-11.2798,34.7595,0.117687,-0.758083,0.106159,-0.632605
106,3622.1,24,132.0,28.0,-3.75399,8.24745,-3.16144,-3.84338,8.27234,-3.16138,-0.0192483,-0.00595157,-0.00354804,30.614,-25.8001,24.8016,0.577368,-0.69949,-0.417912,-0.0520598,33.3125,0.710225,9.76432,-1.17692,0.522945,9.70865,-0.977044,-0.0677501,0.0451622,-0.0234814,-18.7186,-38.4865,16.8592,0.207942,-0.240422,-0.693909,-0.646102,33.9375,9.68632,0.183035,-2.11759,9.63916,0.317305,-1.67829,0.00809153,-0.00374431,0.0531937,-38.2928,-11.5332,33.9083,0.117926,-0.757988,0.106409,-0.632633
106,3622.11,24,132.0,28.0,-3.68429,8.35901,-3.35321,-3.84313,8.31763,-3.17658,-0.0198221,0.0497694,-0.0142907,30.6152,-26.0482,25.0656,0.577419,-0.69939,-0.417997,-0.0521588,33.3125,0.796848,9.80406,-0.826994,0.539168,9.73857,-0.810816,-0.0772568,0.0828918,-0.024965,-18.7179,-38.2283,16.5757,0.207835,-0.240129,-0.693755,-0.646411,33.9375,9.68522,0.183356,-2.15619,9.63929,0.317343,-1.64802,-0.00344715,-0.0150886,0.0199719,-39.0647,-10.7193,34.8975,0.117718,-0.758036,0.106569,-0.632587
106,3622.12,24,132.0,28.0,-3.63795,8.43661,-3.12185,-3.87314,8.36313,-3.20685,0.0109208,0.047859,-0.0122797,30.609,-25.4275,24.7994,0.577452,-0.699363,-0.418006,-0.0520768,33.3125,0.681161,9.72886,-0.867567,0.554462,9.69313,-0.720365,-0.0128011,0.0832606,-0.0348425,-18.591,-38.104,16.5759,0.207742,-0.239913,-0.693816,-0.646456,33.9375,9.72795,0.143545,-1.96256,9.72935,0.287094,-1.66354,0.021171,-0.0183439,0.0255204,-38.5514,-11.0032,34.616,0.117599,-0.75807,0.106693,-0.632548
106,3622.13,24,132.0,28.0,-3.71647,8.58794,-3.239,-3.90315,8.39353,-3.22199,-0.0185202,0.0428425,0.00639261,30.3686,-25.7872,24.4083,0.577675,-0.699231,-0.417924,-0.0520361,33.3125,0.604286,9.9171,-0.908292,0.464507,9.75373,-0.734759,-0.038079,0.0594263,-0.0346322,-18.846,-37.9653,16.2913,0.207612,-0.239637,-0.693699,-0.646725,33.9375,9.72674,0.33403,-2.04093,9.72912,0.347519,-1.72427,-0.0104811,0.00538046,0.0114803,-38.5526,-10.874,34.7576,0.117569,-0.758045,0.106818,-0.632563
106,3622.14,24,132.0,28.0,-3.87485,8.51155,-3.43355,-3.91759,8.51441,-3.26754,-0.00271986,0.0373614,0.00976442,30.1098,-25.0289,24.4042,0.57775,-0.69923,-0.417822,-0.0520306,33.3125,0.483825,9.76555,-1.10359,0.404534,9.78405,-0.734308,-0.0170381,0.0743729,-0.00613226,-19.4994,-37.9418,16.8506,0.207347,-0.239415,-0.693676,-0.646917,33.9375,9.60447,0.1095,-2.34951,9.71442,0.377859,-1.64862,0.00934352,-0.0132888,0.00426771,-38.4194,-11.1381,34.7584,0.117612,-0.758063,0.10684,-0.632529
106,3622.15,24,132.0,28.0,-3.75934,8.62483,-3.39372,-3.91771,8.54458,-3.31291,-0.0357952,0.0653151,-0.0165043,29.6252,-25.8717,24.2791,0.577783,-0.69911,-0.417952,-0.0522324,33.3125,0.523581,9.95396,-1.06476,0.329513,9.79929,-0.718699,-0.0644426,0.0308207,-0.0407649,-19.0957,-38.472,16.2924,0.207336,-0.239112,-0.693443,-0.647281,33.9375,9.68282,0.14603,-2.23316,9.71458,0.27204,-1.60287,0.0127683,-0.0126167,0.00270755,-38.6873,-10.6102,34.615,0.117409,-0.758109,0.106895,-0.632503
106,3622.16,24,132.0,28.0,-3.98715,8.66418,-3.43575,-4.00787,8.6207,-3.35829,-0.0079321,0.0258497,-0.00989402,30.3581,-25.4139,25.0622,0.577738,-0.699115,-0.417996,-0.0523093,33.3125,0.715398,9.99127,-1.02268,0.359602,9.81433,-0.733949,-0.0182312,0.0800711,-0.0391242,-19.4829,-38.7159,16.5731,0.207089,-0.238705,-0.693423,-0.647532,33.9375,9.83661,0.295993,-2.11675,9.72941,0.256862,-1.64831,0.0410807,-0.00850026,0.0248773,-38.4038,-11.6526,35.1846,0.117458,-0.758079,0.106993,-0.632512
106,3622.17,24,132.0,28.0,-4.10292,8.51297,-3.47546,-4.06854,8.59091,-3.37326,0.00368358,0.0533804,0.0103652,29.7418,-25.6294,24.8023,0.577498,-0.699217,-0.418121,-0.0525973,33.3125,0.783122,9.80096,-1.29188,0.419875,9.85952,-0.764407,-0.0019239,0.0373765,-0.0351063,-19.2378,-38.2094,16.854,0.207118,-0.238571,-0.693495,-0.647495,33.9375,9.72024,0.145793,-2.23278,9.74457,0.317403,-1.61831,0.0282545,0.0185237,0.00304034,-38.5502,-11.1324,34.4743,0.117499,-0.757991,0.10696,-0.632616
106,3622.18,24,132.0,28.0,-3.87512,8.66297,-3.47255,-4.11337,8.62146,-3.35818,0.0306054,0.0649544,-0.0114707,30.3709,-26.0355,24.5411,0.577485,-0.699172,-0.418227,-0.0524918,33.3125,0.828299,9.8777,-1.05899,0.494908,9.87451,-0.810154,-0.0496084,0.00381216,-0.0414575,-19.2317,-37.6929,16.0051,0.207037,-0.23835,-0.693243,-0.647873,33.9375,9.75787,0.183525,-2.23263,9.77466,0.272053,-1.60319,-0.0174537,0.00217132,-0.00668617,-38.4178,-11.1378,34.9003,0.117653,-0.757942,0.107071,-0.632628
106,3622.19,24,132.0,28.0,-3.82556,8.62776,-3.12531,-4.14364,8.5764,-3.32785,-0.00149353,0.0633781,0.0122915,30.2471,-26.1529,24.6733,0.577492,-0.699109,-0.418307,-0.0526115,33.3125,0.676984,9.87843,-1.02301,0.510207,9.84418,-0.734772,-0.0742317,-0.0103933,0.00228128,-18.844,-38.0944,16.292,0.207134,-0.238435,-0.692934,-0.648142,33.9375,9.76176,0.296467,-2.11752,9.72943,0.332487,-1.64855,0.0373902,0.0138082,-0.0253384,-38.2889,-11.2734,34.759,0.117755,-0.757894,0.106911,-0.632693
106,3622.2,24,132.0,28.0,-3.94722,8.58868,-3.35792,-4.09919,8.50055,-3.34283,0.0067432,0.0767558,0.00698175,30.1149,-25.6493,24.8017,0.577343,-0.699122,-0.418465,-0.0528139,33.3125,0.750826,9.84002,-1.09899,0.539366,9.78387,-0.825798,-0.0140301,0.0333509,0.0299413,-18.7245,-38.0994,16.8569,0.207128,-0.238637,-0.692993,-0.648006,33.9375,9.72284,0.221088,-2.15604,9.69946,0.392999,-1.63345,0.0202806,-0.0162806,-0.00991085,-38.5568,-10.7455,34.6157,0.11762,-0.757966,0.106828,-0.632646
106,3622.21,24,132.0,28.0,-3.90247,8.43865,-3.12582,-4.08349,8.48542,-3.25221,-0.0228492,0.06269,0.0011276,30.1178,-26.0216,25.0664,0.577252,-0.699055,-0.418665,-0.0531313,33.3125,0.747941,9.61359,-1.17575,0.524205,9.70835,-0.765476,-0.0559947,0.0170138,-0.0109348,-19.3502,-38.9787,16.5756,0.207093,-0.238584,-0.692769,-0.648276,33.9375,9.56893,0.26129,-2.31222,9.66958,0.302298,-1.5876,0.0694006,0.000699122,-0.00568365,-38.5565,-11.1338,33.9069,0.117616,-0.757944,0.106637,-0.632705
106,3622.22,24,132.0,28.0,-3.71085,8.43786,-3.04597,-4.03816,8.42475,-3.17662,0.0364201,0.0835255,0.051039,30.1188,-25.7738,24.54,0.577136,-0.699139,-0.418658,-0.0533252,33.3125,0.784812,9.57555,-1.21368,0.523545,9.63293,-0.795916,-0.0427647,0.0599954,-0.0244592,-18.9651,-37.8312,15.5847,0.206721,-0.238263,-0.692522,-0.648776,33.9375,9.79428,0.411742,-2.31085,9.66921,0.317312,-1.67845,0.005907,0.0113318,0.0147302,-38.5529,-11.0036,34.4741,0.117627,-0.757883,0.106736,-0.63276
106,3622.23,24,132.0,28.0,-3.75586,8.3606,-3.23882,-3.97788,8.39414,-3.14641,-0.0463323,0.0857294,0.0324818,30.2343,-25.5313,25.1944,0.577108,-0.69904,-0.418795,-0.0538596,33.3125,0.638272,9.65263,-1.02298,0.493259,9.57259,-0.765683,0.0241947,0.0354942,-0.0571784,-19.4895,-38.587,16.8544,0.206764,-0.2381,-0.692696,-0.648637,33.9375,9.72504,0.220445,-2.07883,9.71461,0.393039,-1.60326,-0.047208,0.0330063,-0.0324707,-38.4139,-11.3959,34.7587,0.118122,-0.75772,0.10677,-0.632857
106,3622.24,24,132.0,28.0,-3.79472,8.39849,-3.27802,-3.88784,8.34819,-3.1464,-0.0111469,0.0662982,0.0331496,29.6197,-25.6231,24.5401,0.577051,-0.699047,-0.41882,-0.0541882,33.3125,0.712313,9.68953,-1.0992,0.493733,9.63294,-0.750398,-0.0270494,0.0435539,-0.0212167,-18.6957,-38.615,15.591,0.206529,-0.237921,-0.69249,-0.648996,33.9375,9.71844,0.222373,-2.31045,9.69966,0.423305,-1.58815,0.0465863,0.00713156,-0.0119853,-38.3025,-11.1469,33.766,0.118228,-0.757675,0.106559,-0.632926
106,3622.25,24,132.0,28.0,-3.82796,8.28631,-3.12419,-3.88847,8.31794,-3.19164,-0.0263068,0.0634156,-0.0306468,29.8611,-25.2635,24.7999,0.577042,-0.698902,-0.419052,-0.0543522,33.3125,0.594438,9.65146,-1.21737,0.433477,9.63309,-0.765147,-0.026087,0.0491063,-0.0132467,-19.232,-37.822,16.1468,0.206305,-0.237712,-0.692409,-0.649231,33.9375,9.72434,0.296704,-2.1179,9.66959,0.347673,-1.58774,-0.0388197,0.00189695,-0.0264384,-39.0596,-11.1066,34.6143,0.118511,-0.757633,0.106623,-0.632914
106,3622.26,24,132.0,28.0,-3.8293,8.28597,-3.1627,-3.90316,8.28792,-3.11605,-0.00341095,0.070851,-0.0184094,29.753,-26.1268,24.2804,0.577133,-0.69871,-0.41924,-0.0543902,33.3125,0.479895,9.57651,-1.21921,0.387813,9.63332,-0.855546,-0.0183297,0.0505161,-0.0374666,-18.4489,-38.3666,16.0143,0.206272,-0.237451,-0.692511,-0.649228,33.9375,9.75956,0.297109,-2.19472,9.66966,0.362817,-1.57266,0.0389341,-0.0186274,-0.0146102,-38.2842,-11.2724,35.1846,0.118439,-0.757696,0.10649,-0.632874
106,3622.27,24,132.0,28.0,-3.64222,8.2083,-3.19812,-3.9038,8.21241,-3.11589,-0.00230957,0.0458999,-0.0141869,30.1138,-25.6492,24.9329,0.577114,-0.698633,-0.419386,-0.0544636,33.3125,0.598467,9.87815,-1.10188,0.372598,9.64851,-0.900748,0.00408903,0.0429543,-0.062381,-18.7071,-37.7116,15.4448,0.206067,-0.237041,-0.692545,-0.649407,33.9375,9.61496,0.220514,-2.00278,9.63967,0.317454,-1.55722,0.00921528,-0.0151716,-0.0185947,-38.1623,-11.1505,34.9012,0.118474,-0.757731,0.106458,-0.632831
106,3622.28,24,132.0,28.0,-3.86388,8.17345,-3.04737,-3.93319,8.21271,-3.02525,-0.00309405,0.0343305,-0.00872146,29.7307,-25.1321,25.3243,0.576915,-0.698594,-0.41968,-0.0548114,33.3125,0.562341,9.76583,-1.02472,0.32811,9.66358,-0.80976,-0.0678713,0.0366592,-0.0452629,-18.8502,-37.8363,16.4315,0.206254,-0.236779,-0.692497,-0.649494,33.9375,9.57734,0.182783,-2.00293,9.66945,0.287136,-1.61782,0.0404229,0.00230427,-0.0270138,-38.6838,-10.9979,34.19,0.118474,-0.757731,0.106311,-0.632855
106,3622.29,24,132.0,28.0,-3.7867,8.4005,-3.04698,-3.96396,8.19777,-3.08559,0.032535,0.0194889,0.00630551,30.1172,-26.1455,25.3296,0.576714,-0.698683,-0.419794,-0.0549156,33.3125,0.60702,9.65431,-0.791226,0.328835,9.67852,-0.703933,-0.0511514,0.0413866,-0.0356869,-18.7144,-37.8409,16.0095,0.20629,-0.236529,-0.692412,-0.649665,33.9375,9.68082,0.184641,-2.3106,9.66953,0.347655,-1.60288,0.00400357,0.00781486,-0.0144542,-38.5526,-10.874,34.7576,0.118417,-0.757716,0.106283,-0.632889
106,3622.3,24,132.0,28.0,-3.86896,8.39941,-3.24065,-3.94799,8.33355,-3.11611,0.0496052,0.00363643,-0.00317486,29.9821,-25.0218,24.7982,0.576645,-0.698771,-0.419768,-0.0547284,33.3125,0.531189,9.80516,-0.79309,0.404846,9.66305,-0.553311,-0.0109393,0.017199,-0.0147738,-18.5645,-38.6196,15.4509,0.206196,-0.23649,-0.692215,-0.649918,33.9375,9.72614,0.220124,-2.04023,9.69952,0.362768,-1.61822,-0.068566,0.0320364,-0.0419888,-38.9307,-11.2422,34.4731,0.118944,-0.757561,0.106365,-0.632961
106,3622.31,24,132.0,28.0,-3.82904,8.51327,-3.20195,-3.96256,8.40915,-3.13136,0.0253166,-0.0257059,-0.0503972,29.3576,-25.1122,25.3249,0.576377,-0.69881,-0.420062,-0.0547881,33.3125,0.839637,9.84264,-0.671461,0.420727,9.7384,-0.492737,-0.0717846,0.0582814,-0.0238873,-18.7042,-38.357,15.8715,0.206187,-0.236269,-0.69197,-0.650263,33.9375,9.72163,0.411573,-2.23441,9.72976,0.408205,-1.57312,0.0427656,0.017436,0.0243373,-39.3232,-10.7072,34.6129,0.118561,-0.757527,0.106323,-0.633081
106,3622.32,24,132.0,28.0,-3.79445,8.43643,-3.27815,-3.96293,8.40911,-3.17666,-0.00257195,0.0197373,-0.0225553,30.8578,-25.6887,25.1941,0.576571,-0.698678,-0.420044,-0.0545695,33.3125,0.648318,9.99358,-0.714138,0.467009,9.93452,-0.50756,-0.0123812,-0.0210559,-0.0266961,-18.7062,-38.228,15.8708,0.206386,-0.236372,-0.691833,-0.650308,33.9375,9.80198,0.409493,-2.04063,9.68478,0.483838,-1.55799,-0.0254434,0.0215908,-0.0388223,-39.0612,-11.107,34.4725,0.118847,-0.757441,0.106202,-0.633151
106,3622.33,24,132.0,28.0,-3.90569,8.55146,-3.24171,-4.06855,8.45512,-3.23706,0.0133029,-0.0180627,-0.038609,29.7357,-25.2567,24.9313,0.576544,-0.69864,-0.420165,-0.0544153,33.3125,0.558464,10.0284,-1.18053,0.437237,10.0403,-0.567523,-0.0357498,-0.0135724,-0.0331773,-18.7191,-37.841,16.2915,0.20674,-0.236447,-0.691741,-0.650266,33.9375,9.72084,0.259699,-2.23348,9.69942,0.468605,-1.64883,0.0416624,-0.0166749,0.022439,-38.9307,-11.2422,34.4731,0.118748,-0.75748,0.106148,-0.633131
106,3622.34,24,132.0,28.0,-3.90381,8.43831,-3.16433,-4.06956,8.40975,-3.31246,0.0454566,0.00683983,-0.00563243,29.9855,-25.2701,24.7997,0.576457,-0.698732,-0.420158,-0.054206,33.3125,0.544738,10.0253,-1.64542,0.405259,10.0257,-0.869624,-0.021391,0.0519125,-0.027462,-19.2258,-38.08,16.0073,0.206518,-0.236147,-0.691729,-0.650458,33.9375,9.68561,0.259294,-2.15666,9.69984,0.408235,-1.54269,-0.0302339,-0.0531478,0.0187568,-38.9471,-10.4689,34.4721,0.11852,-0.757643,0.106352,-0.632945
106,3622.35,24,132.0,28.0,-3.79847,8.62479,-3.43279,-4.10059,8.27408,-3.28193,0.0575817,-0.0214706,-0.00889478,29.9967,-26.0154,24.6729,0.576449,-0.698794,-0.420115,-0.0538205,33.3125,0.637726,9.87829,-1.06244,0.463331,9.96562,-1.15729,-0.00675246,0.0960264,-0.0540534,-19.0782,-38.8588,15.5897,0.206023,-0.235554,-0.691817,-0.650737,33.9375,9.64528,0.336432,-2.27332,9.66966,0.362817,-1.57266,0.0299332,-0.0387843,0.0418942,-38.2944,-11.0156,34.7587,0.118246,-0.757742,0.106466,-0.632858
106,3622.36,24,132.0,28.0,-3.90515,8.62734,-3.24196,-4.11402,8.41016,-3.22181,0.0549923,-0.0115429,-0.0111149,29.9771,-24.6492,24.7959,0.576371,-0.698883,-0.420109,-0.0535416,33.3125,0.646776,9.84271,-0.752397,0.481792,9.96478,-0.583124,-0.072365,0.0259584,-0.00925648,-18.1886,-38.2469,15.7335,0.20616,-0.235529,-0.691626,-0.650906,33.9375,9.76097,0.144592,-2.11658,9.72949,0.347631,-1.63347,0.00507964,0.0107204,0.0296893,-38.5533,-11.1331,34.1906,0.118289,-0.757656,0.106605,-0.63293
106,3622.37,24,132.0,28.0,-3.75159,8.5889,-3.16256,-4.06829,8.5155,-3.26739,0.0633894,-0.0451735,0.00712786,30.2371,-25.6557,25.064,0.576299,-0.699069,-0.419939,-0.0532281,33.3125,0.669723,9.72626,-1.25497,0.450216,9.82916,-0.689115,-0.0658207,-0.0014702,0.00705683,-19.3498,-38.8496,16.4338,0.206247,-0.235606,-0.691394,-0.651096,33.9375,9.68271,0.336194,-2.27293,9.7295,0.362756,-1.63351,-0.00423017,-0.0126587,0.0168417,-38.4404,-10.3659,34.332,0.117985,-0.757716,0.106721,-0.632895
106,3622.38,24,132.0,28.0,-3.67654,8.7018,-3.2003,-4.02295,8.54536,-3.2826,0.077406,-0.00618669,-0.0131561,30.1093,-25.1527,24.6675,0.576199,-0.699225,-0.419864,-0.0528485,33.3125,0.66838,9.6507,-1.29347,0.402393,9.60317,-0.901059,0.0136809,-0.0233617,0.00372749,-19.0871,-38.7299,16.012,0.206182,-0.235715,-0.691432,-0.651036,33.9375,9.72524,0.258414,-2.07907,9.69959,0.408161,-1.60323,-0.0402756,0.00496538,0.0240018,-38.2916,-11.1445,34.7589,0.118132,-0.75764,0.106945,-0.632922
106,3622.39,24,132.0,28.0,-3.67627,8.55038,-3.1613,-3.96254,8.54494,-3.26756,0.0651327,0.000127574,0.0111198,29.3698,-25.6097,24.6717,0.575889,-0.699504,-0.419826,-0.0528385,33.3125,0.752516,9.61462,-1.02079,0.492077,9.54263,-0.932002,0.0381986,-0.0378723,-0.0391614,-18.7114,-37.5826,15.585,0.206218,-0.235759,-0.691555,-0.65088,33.9375,9.72453,0.334672,-2.11814,9.69953,0.423267,-1.61841,-0.032004,0.000957969,-0.0161887,-38.1623,-11.1505,34.9012,0.11834,-0.757611,0.106984,-0.632911
106,3622.4,24,132.0,28.0,-3.71487,8.62621,-3.20062,-3.9324,8.52964,-3.25246,0.0357351,0.000807851,0.0241274,29.4859,-25.2433,25.063,0.5756,-0.699747,-0.419794,-0.0530324,33.3125,0.686234,9.91816,-0.713206,0.539673,9.64776,-0.629732,-0.00384532,0.0418689,-0.0518712,-18.5892,-37.4585,15.8672,0.2063,-0.235617,-0.691615,-0.650841,33.9375,9.61147,0.183509,-2.11836,9.69959,0.408161,-1.60323,-0.0285165,0.0561221,-0.013299,-39.1869,-10.9707,34.8974,0.118461,-0.757421,0.106994,-0.633114
106,3622.41,24,132.0,28.0,-3.75319,8.55063,-3.20094,-3.90239,8.5294,-3.26759,-0.00524012,0.00922756,-0.00788866,29.4887,-25.6156,25.3277,0.575351,-0.699862,-0.419905,-0.0533295,33.3125,0.59076,9.9893,-1.37342,0.542473,9.90406,-0.432541,-0.0702418,0.009324,-0.0336831,-18.9685,-38.2186,16.1509,0.206557,-0.23561,-0.691339,-0.651055,33.9375,9.61386,0.220836,-2.04139,9.63942,0.332505,-1.6178,-0.0214773,-0.0157172,-0.0202561,-38.2928,-11.0153,34.9006,0.118549,-0.757463,0.107042,-0.633039
106,3622.42,24,132.0,28.0,-3.8285,8.39979,-3.16307,-3.88782,8.48398,-3.28261,-0.0171098,-0.00958516,0.0147457,30.1111,-25.7728,25.4586,0.575332,-0.699926,-0.419806,-0.0534858,33.3125,0.24554,10.0275,-1.45724,0.269875,9.9958,-0.838669,-0.0802038,0.0801152,-0.0464614,-18.0614,-37.9935,15.5919,0.206569,-0.235123,-0.691337,-0.65123,33.9375,9.76447,0.181597,-2.00101,9.66954,0.39303,-1.60302,0.028048,-0.0415164,0.0103541,-38.301,-10.6286,34.9001,0.118166,-0.75763,0.107007,-0.632917
106,3622.43,24,132.0,28.0,-3.72476,8.54799,-3.46991,-3.85768,8.48376,-3.28264,0.012691,0.0487771,0.0195258,29.1222,-25.5965,24.5409,0.575122,-0.700067,-0.419823,-0.0537487,33.3125,0.168514,9.72652,-1.45766,0.118027,10.0116,-1.09462,-0.0261007,0.0735502,-0.00681185,-18.7128,-38.099,16.152,0.206389,-0.234768,-0.691546,-0.651192,33.9375,9.64779,0.183594,-2.15658,9.69946,0.377874,-1.6334,-0.0170799,0.0135625,-0.00421514,-38.4279,-10.8811,34.4744,0.118226,-0.757573,0.107061,-0.632965
106,3622.44,24,132.0,27.9375,-3.8687,8.62671,-3.2799,-3.90315,8.46897,-3.29766,0.0301973,0.0440937,0.0204388,30.2358,-25.1597,24.4048,0.575254,-0.700103,-0.419611,-0.0535217,33.3125,0.407496,9.72813,-1.10485,0.0568786,9.80034,-1.03441,-0.112602,0.0505808,0.0207069,-18.9685,-38.2186,16.1509,0.206259,-0.234455,-0.691383,-0.651519,33.9375,9.79829,0.334519,-2.15597,9.74467,0.438421,-1.60357,0.0328623,-0.023864,0.00580591,-38.0331,-11.1566,35.0435,0.118099,-0.757648,0.106979,-0.632912
106,3622.45,24,132.0,27.9375,-3.90756,8.47525,-3.27997,-3.96317,8.52979,-3.32793,0.0090677,0.0244403,0.0487743,29.3715,-25.4859,24.2773,0.57529,-0.700188,-0.419409,-0.0536057,33.3125,0.751472,9.65202,-1.05965,0.238221,9.6637,-0.748767,-0.12305,0.0368246,0.012109,-18.7207,-37.5829,16.149,0.206371,-0.234331,-0.691114,-0.651814,33.9375,9.68341,0.259936,-2.23386,9.75982,0.438461,-1.57338,-0.000887889,0.0145093,-0.0128288,-39.3209,-10.9657,34.3296,0.118203,-0.757583,0.106897,-0.632984
106,3622.46,24,132.0,27.9375,-3.83305,8.51227,-3.31747,-4.0536,8.51535,-3.31271,0.026187,0.0175629,0.0312284,29.2388,-25.3542,25.0641,0.574948,-0.700411,-0.419465,-0.0539228,33.3125,0.861141,9.61297,-1.21242,0.509224,9.6328,-0.674929,-0.121281,0.00232042,0.0151945,-18.691,-38.6148,15.309,0.206312,-0.234332,-0.69057,-0.652409,33.9375,9.68062,0.146673,-2.31037,9.66917,0.408043,-1.69388,-0.0450719,0.0445422,-0.0118757,-38.2983,-10.7575,34.9002,0.118267,-0.757451,0.10697,-0.633118
106,3622.47,24,132.0,27.9375,-3.75346,8.51269,-3.20081,-4.00788,8.59052,-3.32802,0.037947,0.011869,0.0295269,29.8645,-25.5119,24.8014,0.574895,-0.700549,-0.419316,-0.0538667,33.3125,0.784613,9.50025,-1.21344,0.643751,9.542,-0.721343,-0.041738,-0.0494864,-0.00587191,-18.6973,-38.3568,15.4485,0.206435,-0.234572,-0.690297,-0.652573,33.9375,9.72704,0.181834,-2.00139,9.66909,0.3324,-1.70877,-0.0039454,0.0519835,-0.0140609,-38.9451,-10.8569,33.9053,0.118408,-0.757281,0.106965,-0.633295
106,3622.48,24,132.0,27.9375,-3.79232,8.55058,-3.24001,-3.97786,8.56011,-3.31288,0.0405247,0.0374695,0.0462634,29.7474,-25.8781,24.5414,0.574853,-0.700674,-0.419162,-0.0538858,33.3125,0.748686,9.46323,-1.13653,0.627515,9.48185,-0.857433,-0.0353991,-0.0298183,-0.00493211,-18.6973,-38.3568,15.4485,0.206444,-0.234715,-0.69012,-0.652705,33.9375,9.79549,0.221256,-2.23247,9.68448,0.31739,-1.61799,-0.0359856,0.0346007,-0.000128907,-37.7756,-11.5573,34.4775,0.11884,-0.75709,0.107161,-0.63341
106,3622.49,24,132.0,27.9375,-3.75185,8.55096,-3.16243,-3.97761,8.57523,-3.29781,0.0147637,0.0591853,0.0315872,29.8607,-25.6353,25.4583,0.574563,-0.700818,-0.419266,-0.0542978,33.3125,0.785956,9.57581,-1.17494,0.567632,9.51215,-0.841871,-0.00867044,0.0541812,-0.0182784,-18.8347,-38.0941,15.7281,0.206262,-0.234576,-0.690195,-0.652734,33.9375,9.79848,0.372488,-2.1562,9.74465,0.377921,-1.60337,0.0246257,0.0128202,-0.00962651,-38.167,-11.1516,34.4757,0.118857,-0.757043,0.10707,-0.633479
106,3622.5,24,132.0,27.9375,-3.89766,8.36411,-2.97155,-3.96268,8.46949,-3.20699,-0.0212273,0.0373076,0.0195481,29.859,-25.5111,25.4575,0.574478,-0.700802,-0.41936,-0.0546694,33.3125,0.789786,9.7272,-1.0592,0.508492,9.60274,-0.765688,-0.0578073,0.0544365,-0.0333998,-18.8257,-38.223,15.3059,0.206075,-0.234263,-0.690022,-0.653088,33.9375,9.79789,0.258582,-2.1555,9.71485,0.347739,-1.54258,-0.00528281,-0.0133168,-0.0438231,-38.278,-11.7889,34.7597,0.119321,-0.757029,0.107006,-0.633419
106,3622.51,24,132.0,27.9375,-3.7457,8.47676,-2.96965,-3.96293,8.4242,-3.19179,-0.00215532,0.0797828,0.0311956,29.7273,-24.6358,24.9276,0.574397,-0.7008,-0.419434,-0.0549853,33.3125,0.787897,9.8773,-1.13716,0.583926,9.72344,-0.856468,-0.0985636,0.0328387,-0.0251355,-19.4607,-39.1026,15.5885,0.205892,-0.233983,-0.68967,-0.653618,33.9375,9.68651,0.221004,-2.11782,9.7596,0.332531,-1.61844,0.0441262,-0.016348,-0.0122119,-38.5522,-10.7444,35.0412,0.118948,-0.757137,0.106869,-0.633383
106,3622.52,24,132.0,27.9375,-3.75881,8.51135,-3.35484,-3.93304,8.45413,-3.25229,-0.0435687,0.0583438,0.0383186,29.4913,-25.244,24.4068,0.57462,-0.700659,-0.419334,-0.0552059,33.3125,0.605976,9.6917,-0.830087,0.524589,9.76872,-0.765303,-0.117162,0.0318172,0.0163525,-18.8116,-38.9971,15.1694,0.205695,-0.233867,-0.68921,-0.654206,33.9375,9.72634,0.258093,-2.04046,9.66933,0.302224,-1.64814,0.0522697,0.0284277,-0.0503698,-38.7987,-11.3771,34.6155,0.119076,-0.757069,0.106587,-0.633488
106,3622.53,24,132.0,27.9375,-3.76094,8.39719,-3.39297,-3.93278,8.49942,-3.26749,-0.0430338,0.0429137,0.0244579,29.6042,-25.3731,25.9821,0.574369,-0.700673,-0.419561,-0.0559132,33.3125,0.677829,9.76573,-0.98391,0.479261,9.70841,-0.734979,-0.0890752,0.0772902,-0.0318154,-18.5652,-38.8778,15.7344,0.205736,-0.233547,-0.68916,-0.654361,33.9375,9.76255,0.448341,-2.11845,9.72952,0.453505,-1.63381,-0.0121833,0.00905288,-0.0278767,-37.7838,-11.1707,34.477,0.119272,-0.757033,0.106514,-0.633506
106,3622.54,24,132.0,27.9375,-3.67948,8.47383,-3.23806,-3.90264,8.4992,-3.26752,-0.0108417,0.0653059,0.0573539,29.4871,-25.7393,25.7221,0.574016,-0.700852,-0.419652,-0.0566037,33.3125,0.411672,9.57856,-0.949402,0.434227,9.70849,-0.719594,-0.0702239,0.0346262,-0.0288675,-18.5676,-38.8779,15.8754,0.20594,-0.233411,-0.689154,-0.65435,33.9375,9.69021,0.295977,-2.00248,9.71459,0.559395,-1.61893,0.0175877,0.0600533,-0.0225936,-38.4233,-11.3979,33.9077,0.119577,-0.756824,0.106268,-0.633739
106,3622.55,24,132.0,27.9375,-3.94588,8.39966,-3.28029,-3.99383,8.42433,-3.28237,-0.0191475,0.0436008,0.0339836,29.8652,-25.8838,25.3286,0.574019,-0.700829,-0.419651,-0.0568688,33.3125,0.679619,9.57798,-0.905825,0.449094,9.72362,-0.764978,-0.070816,0.0608794,-0.0296427,-19.7228,-38.1896,15.0174,0.205454,-0.232873,-0.68887,-0.654994,33.9375,9.68082,0.184641,-2.3106,9.66948,0.393011,-1.61816,-0.0151453,0.0215206,-0.0128005,-38.5416,-11.9074,33.7661,0.120201,-0.756657,0.106289,-0.633818
106,3622.56,24,132.0,27.9375,-3.9432,8.40033,-3.20328,-4.00903,8.39425,-3.26718,-0.0197227,0.0360829,0.0646505,29.3621,-25.3607,25.1952,0.573934,-0.700898,-0.419593,-0.0573024,33.3125,0.682703,9.87973,-0.829308,0.509901,9.75356,-0.689695,-0.0609346,0.0292516,-0.00882378,-18.6922,-38.2276,15.0248,0.205337,-0.232749,-0.688654,-0.655302,33.9375,9.57664,0.259041,-2.042,9.68445,0.438371,-1.63352,-0.0171388,0.0394165,-0.0173644,-39.0608,-10.9774,34.756,0.120196,-0.756552,0.106266,-0.633947
106,3622.57,24,132.0,27.9375,-3.86548,8.32454,-3.12488,-4.02473,8.31886,-3.267,0.0606039,0.0501794,0.0694971,29.8596,-25.6352,25.5895,0.573575,-0.701178,-0.419579,-0.0575823,33.3125,0.645433,9.76715,-0.790896,0.510987,9.76842,-0.52342,-0.00950831,-0.0141037,-0.00842682,-18.8105,-38.6098,14.7442,0.205243,-0.232822,-0.688413,-0.655558,33.9375,9.6875,0.410847,-2.11899,9.71482,0.483845,-1.55815,-0.0492471,-0.0310316,-0.0251992,-38.5444,-11.2606,34.7581,0.120432,-0.756624,0.10632,-0.633807
106,3622.58,24,132.0,27.9375,-3.83064,8.28564,-3.2012,-4.06919,8.34944,-3.20662,0.0650171,0.0144274,0.0441682,29.6209,-26.1191,25.1992,0.573385,-0.701352,-0.419545,-0.0575893,33.3125,0.728824,9.88142,-0.557431,0.527211,9.79834,-0.357193,-0.0234016,-0.0338251,-0.00778,-19.3386,-38.2039,15.1612,0.205284,-0.232962,-0.688122,-0.655801,33.9375,9.72104,0.297668,-2.23371,9.71494,0.438507,-1.52773,0.0226636,-0.0212871,-0.0138902,-38.6702,-11.6423,34.1908,0.120646,-0.756647,0.106213,-0.633757
106,3622.59,24,132.0,27.9375,-3.90515,8.43798,-3.20283,-4.06893,8.34946,-3.17642,0.0239021,0.0357315,0.0844277,29.124,-25.9686,24.9369,0.573238,-0.701499,-0.419453,-0.0579304,33.3125,0.683648,9.80468,-0.790326,0.512535,9.8134,-0.311722,-0.0511725,-0.0500647,0.0177125,-19.2129,-38.4669,15.5866,0.205528,-0.233313,-0.687779,-0.655959,33.9375,9.76695,0.447056,-1.96404,9.68462,0.362802,-1.58787,0.0258977,0.0236196,0.014898,-38.6589,-11.5103,35.4672,0.120498,-0.756567,0.106226,-0.633879
106,3622.6,24,132.0,27.9375,-4.02012,8.40058,-3.24292,-4.11453,8.33466,-3.20654,0.0560878,-0.0286995,0.0627137,29.6258,-25.9958,24.4111,0.573522,-0.701502,-0.419116,-0.0575305,33.3125,0.919895,10.0691,-0.55458,0.5276,9.87382,-0.372088,-0.0262492,-0.0234497,0.0385315,-19.3488,-37.6878,15.2992,0.205441,-0.233592,-0.687489,-0.656192,33.9375,9.57393,0.373911,-2.15851,9.71475,0.438451,-1.57314,0.00223248,-0.0227503,0.00731122,-38.4034,-12.041,34.4759,0.120861,-0.756555,0.106304,-0.633812
106,3622.61,24,132.0,27.9375,-3.8293,8.47533,-3.20182,-4.1296,8.33477,-3.20653,0.0503072,-0.0450754,0.108903,29.6109,-25.6219,25.5899,0.57334,-0.701827,-0.418796,-0.0577035,33.3125,0.873176,9.84148,-0.825733,0.602267,9.87378,-0.463215,-0.0221391,-0.0407611,0.008248,-18.6911,-37.8403,14.5996,0.205422,-0.233834,-0.687161,-0.656455,33.9375,9.80159,0.333556,-2.04016,9.71482,0.453595,-1.55805,0.0160467,0.0367759,-0.00233478,-38.676,-11.5141,33.907,0.121056,-0.756395,0.106216,-0.633979
106,3622.62,24,132.0,27.9375,-3.79098,8.36156,-3.16238,-4.08527,8.24382,-3.22147,0.0441433,-0.00842465,0.13758,29.6132,-25.8701,25.7227,0.573053,-0.702211,-0.418488,-0.0581204,33.3125,0.990107,9.9546,-0.74654,0.737549,9.8735,-0.479145,-0.0571348,0.00253479,0.0118094,-19.4718,-38.0701,15.3005,0.205316,-0.233958,-0.686815,-0.656806,33.9375,9.57664,0.259041,-2.042,9.71496,0.514132,-1.52798,-0.0384498,0.0393299,-0.0205722,-38.5526,-10.874,34.7576,0.121039,-0.756287,0.106181,-0.634118
106,3622.63,24,132.0,27.9375,-3.90942,8.20967,-3.2791,-4.04082,8.21324,-3.28186,0.0316377,-0.0192749,0.146258,29.4915,-25.7399,25.1972,0.572989,-0.702545,-0.417985,-0.0583404,33.3125,0.796947,9.84172,-0.827115,0.692605,9.87356,-0.448648,-0.059267,-0.027639,0.00479462,-19.4678,-38.3282,15.302,0.205365,-0.234152,-0.686442,-0.657111,33.9375,9.68581,0.297262,-2.15689,9.73009,0.468797,-1.49764,0.0175263,0.031621,-0.0220727,-38.4237,-11.0096,34.6164,0.120909,-0.756213,0.105996,-0.634261
106,3622.64,24,132.0,27.9375,-3.64008,8.32245,-3.15999,-3.95052,8.22766,-3.31218,0.0830262,-0.0643854,0.145473,29.2467,-25.8511,24.9359,0.572852,-0.703057,-0.41732,-0.0582684,33.3125,0.537554,9.61845,-0.560042,0.602423,9.81328,-0.372716,-0.114591,0.00574256,0.0443795,-19.846,-38.701,15.1605,0.205137,-0.234229,-0.685816,-0.657809,33.9375,9.64918,0.449374,-2.15821,9.6548,0.48385,-1.5427,0.0112702,-0.00535746,-0.00668117,-38.5479,-11.3909,34.1909,0.121,-0.756209,0.105922,-0.634261
106,3622.65,24,132.0,27.9375,-3.68028,8.36001,-3.23769,-3.9352,8.22758,-3.282,0.107669,-0.117374,0.119017,29.1129,-25.7192,25.854,0.572369,-0.703732,-0.416839,-0.0583132,33.3125,0.537653,9.6561,-0.560162,0.497194,9.73793,-0.281624,-0.067885,-0.0442482,0.0129693,-18.8139,-38.9972,15.3104,0.205472,-0.234531,-0.685506,-0.65792,33.9375,9.64988,0.373115,-2.11914,9.65469,0.529188,-1.57311,0.00770158,-0.00941066,-0.0169692,-38.4182,-11.2674,34.6167,0.120996,-0.756252,0.105797,-0.634232
106,3622.66,24,132.0,27.9375,-3.79739,8.20846,-3.31591,-3.91962,8.2577,-3.25188,0.179286,-0.0980156,0.138125,29.6091,-25.2498,25.194,0.572013,-0.704497,-0.416097,-0.057868,33.3125,0.342059,9.91897,-0.758165,0.377619,9.82872,-0.250413,-0.0652706,-0.0753733,0.0119263,-18.8159,-38.8682,15.3096,0.205922,-0.234886,-0.68518,-0.657991,33.9375,9.57463,0.297652,-2.11944,9.69987,0.51411,-1.54303,0.0230624,0.0162443,0.000642087,-38.5479,-11.3909,34.1909,0.121028,-0.756184,0.105684,-0.634325
106,3622.67,24,132.0,27.9375,-3.76629,8.39585,-3.547,-3.87466,8.25735,-3.28212,0.183047,-0.09418,0.153338,29.114,-25.7194,25.7228,0.571293,-0.70543,-0.415508,-0.0578429,33.3125,0.34922,10.0335,-0.526082,0.227991,9.99514,-0.294365,-0.0623195,-0.091165,-0.0133941,-18.9397,-38.7342,14.885,0.206344,-0.235079,-0.6848,-0.658186,33.9375,9.65428,0.37183,-1.96473,9.68505,0.544412,-1.49765,-0.0580885,0.00652362,0.0334224,-38.2873,-11.273,34.9009,0.121071,-0.756109,0.105921,-0.634368
106,3622.68,24,132.0,27.9375,-3.49134,8.54791,-3.27398,-3.82995,8.27206,-3.3577,0.205292,-0.0984747,0.165188,29.1218,-25.9683,25.1993,0.570705,-0.7064,-0.414709,-0.0575395,33.3125,0.385246,10.1082,-0.603114,0.199425,10.1913,-0.248285,-0.0869015,-0.0918694,0.014175,-19.3458,-37.4295,14.8747,0.206621,-0.235273,-0.684286,-0.658564,33.9375,9.76066,0.296788,-2.15612,9.73006,0.589778,-1.51317,-0.0157008,0.0290624,0.00538671,-38.5428,-11.2603,34.9,0.121051,-0.756007,0.105881,-0.634499
106,3622.69,24,132.0,27.9375,-3.53822,8.5838,-3.54422,-3.8602,8.40806,-3.50898,0.180888,-0.155602,0.1413,29.356,-25.2359,25.7194,0.5702,-0.707325,-0.413883,-0.0571346,33.3125,0.796501,10.105,-0.8667,0.364442,10.2213,-0.354982,-0.075944,-0.0694338,0.00252259,-18.8179,-38.7391,15.3089,0.207081,-0.235536,-0.68399,-0.658634,33.9375,9.8376,0.485835,-2.11791,9.75997,0.544373,-1.54345,-0.0256601,-0.0420966,0.00469316,-38.5487,-11.1321,34.6161,0.121018,-0.756128,0.105946,-0.63435
106,3622.7,24,132.0,27.9375,-3.57387,8.69824,-3.50665,-3.84399,8.51368,-3.47903,0.230785,-0.158864,0.142682,28.8591,-25.0855,25.457,0.569494,-0.7084,-0.413077,-0.0566848,33.3125,1.01843,10.1404,-1.09512,0.618867,10.1757,-0.522888,-0.154678,-0.0741033,0.0542536,-19.4576,-38.8443,15.164,0.207228,-0.235893,-0.683255,-0.659222,33.9375,9.72944,0.219161,-1.92442,9.66991,0.574622,-1.52793,0.0268963,0.00381764,-0.00812948,-38.4116,-11.6543,34.4754,0.121137,-0.756097,0.105767,-0.634394
106,3622.71,24,132.0,27.9375,-3.46719,8.69569,-3.69748,-3.79915,8.55858,-3.56977,0.155024,-0.120423,0.159645,29.9834,-25.5178,25.4573,0.569292,-0.709218,-0.412022,-0.0561694,33.3125,1.13436,9.87701,-1.01472,0.827953,10.0395,-0.630334,-0.147683,-0.0562059,0.0607805,-19.1973,-38.7247,14.8831,0.207235,-0.23628,-0.682541,-0.659821,33.9375,9.68601,0.335231,-2.15712,9.68483,0.453607,-1.54276,-0.037061,0.0215828,0.0659162,-38.4057,-11.7825,34.7592,0.121274,-0.755926,0.106143,-0.63451
106,3622.72,24,132.0,27.9375,-3.54437,8.658,-3.737,-3.78433,8.57353,-3.61512,0.193802,-0.150599,0.192602,29.119,-25.844,25.3298,0.568786,-0.710302,-0.410903,-0.0557933,33.3125,1.10166,9.76546,-0.821346,0.887237,9.85822,-0.585881,-0.176554,-0.0456373,0.0274073,-18.6785,-39.1309,15.03,0.207579,-0.236602,-0.681933,-0.660226,33.9375,9.79479,0.297515,-2.27154,9.6847,0.42332,-1.57293,0.0129921,-0.0357404,0.0418782,-38.4221,-11.0093,34.7583,0.120896,-0.756043,0.10629,-0.634418
106,3622.73,24,132.0,27.9375,-3.54437,8.46864,-3.69787,-3.77028,8.49788,-3.66028,0.207769,-0.153438,0.201884,28.8502,-24.5884,25.7164,0.568032,-0.711473,-0.409937,-0.0556533,33.3125,0.911738,9.57805,-0.785457,0.826286,9.69227,-0.540657,-0.213847,-0.00393425,0.0287848,-19.3242,-38.8489,14.8829,0.207621,-0.23666,-0.681095,-0.661057,33.9375,9.61406,0.258804,-2.04162,9.6547,0.347707,-1.55739,-0.00667847,-0.0100427,0.0247372,-38.1768,-11.2832,33.3411,0.121041,-0.756005,0.106467,-0.634405
106,3622.74,24,132.0,27.9375,-3.50899,8.50561,-3.77444,-3.69493,8.46716,-3.63008,0.227152,-0.155066,0.191222,29.3687,-25.6095,24.803,0.567725,-0.712522,-0.408644,-0.0548719,33.3125,0.64588,9.50383,-0.751311,0.705266,9.54155,-0.495026,-0.139484,-0.0448955,-0.000642132,-18.3015,-38.3708,14.8873,0.208117,-0.236892,-0.680722,-0.661201,33.9375,9.61406,0.258804,-2.04162,9.65472,0.438457,-1.55768,-0.0511998,0.0101689,0.0185077,-38.558,-11.1341,33.7651,0.121224,-0.755913,0.1067,-0.634441
106,3622.75,24,132.0,27.9375,-3.43395,8.61851,-3.81218,-3.65022,8.4366,-3.66026,0.2042,-0.127741,0.195982,28.7465,-25.9481,25.4624,0.566962,-0.713738,-0.407605,-0.0546823,33.3125,0.492676,9.65466,-0.793298,0.525405,9.55692,-0.403221,-0.155483,-0.0660966,0.0276794,-18.9491,-37.9599,14.7395,0.208422,-0.237139,-0.680083,-0.661674,33.9375,9.61406,0.258804,-2.04162,9.7299,0.453617,-1.543,0.0101607,-0.0177693,0.0412515,-38.6651,-11.5117,34.8998,0.121095,-0.755931,0.106834,-0.634422
106,3622.76,24,132.0,27.9375,-3.39723,8.65582,-3.85025,-3.5898,8.52671,-3.73603,0.242372,-0.134188,0.240559,29.6132,-25.8701,25.7227,0.566277,-0.715069,-0.406272,-0.0543203,33.3125,0.647721,9.76766,-0.713415,0.40649,9.72313,-0.34157,-0.116431,-0.0702294,0.0325396,-19.0721,-38.3422,14.7408,0.208678,-0.237403,-0.679556,-0.662041,33.9375,9.72383,0.410931,-2.15721,9.62474,0.423344,-1.54234,-0.00516481,-0.0150813,0.0152411,-38.5498,-11.0029,34.7578,0.120883,-0.755983,0.106916,-0.634386
106,3622.77,24,132.0,27.9375,-3.39509,8.58062,-3.77299,-3.60462,8.57211,-3.75121,0.284302,-0.0866958,0.267708,29.1107,-25.7189,26.1165,0.565081,-0.716638,-0.405161,-0.054397,33.3125,0.573034,9.91878,-0.676538,0.285973,9.70832,-0.355998,-0.146526,-0.0619565,0.0267512,-19.5818,-38.8394,14.8811,0.208892,-0.2375,-0.678941,-0.662569,33.9375,9.61226,0.335384,-2.11929,9.66975,0.453585,-1.55781,0.00707317,0.044935,0.0434069,-39.1854,-11.4883,34.047,0.120944,-0.755777,0.107013,-0.634603
106,3622.78,24,132.0,27.9375,-3.51273,8.54255,-3.89008,-3.58942,8.5871,-3.75126,0.268005,-0.11038,0.268402,29.3633,-25.8567,25.8543,0.564205,-0.71808,-0.40385,-0.05421,33.3125,0.494318,9.84319,-0.75516,0.271519,9.82914,-0.385785,-0.200343,-0.0733374,0.0525017,-19.195,-38.7246,14.7421,0.209188,-0.237682,-0.678163,-0.663207,33.9375,9.72414,0.258735,-2.11767,9.66966,0.347692,-1.57261,0.0156364,-0.0304625,0.0143638,-38.5448,-11.3902,34.4746,0.120892,-0.755849,0.107101,-0.634513
106,3622.79,24,132.0,27.9375,-3.46666,8.77157,-3.69773,-3.57485,8.61712,-3.84195,0.288106,-0.0703947,0.310064,29.2333,-25.3535,25.7203,0.563214,-0.719616,-0.4025,-0.0541914,33.3125,0.376543,9.84277,-0.873456,0.25649,9.8594,-0.415832,-0.22919,-0.168538,0.0539659,-19.3191,-38.7197,14.4592,0.209703,-0.238079,-0.677164,-0.663921,33.9375,9.65149,0.258567,-2.04123,9.68456,0.362783,-1.60301,-0.0243593,-0.0311989,0.0378838,-38.6815,-11.2563,33.9066,0.120951,-0.755884,0.107388,-0.634412
106,3622.8,24,132.0,27.9375,-3.31951,8.76939,-3.81098,-3.49962,8.60147,-3.84199,0.255887,-0.0373309,0.316559,29.1091,-25.5948,26.1157,0.562115,-0.721145,-0.401254,-0.0545193,33.3125,0.45496,9.8054,-0.794472,0.255572,9.81427,-0.521745,-0.194875,-0.136311,0.0463542,-19.3141,-38.5905,14.0355,0.209957,-0.238316,-0.676257,-0.66468,33.9375,9.72504,0.220445,-2.07883,9.65433,0.377846,-1.6483,-0.0041765,-0.0385306,0.0284153,-38.2916,-11.1445,34.7589,0.120762,-0.756001,0.107571,-0.634277
106,3622.81,24,132.0,27.9375,-3.39215,8.61923,-3.6961,-3.4686,8.64661,-3.78172,0.313255,-0.0691952,0.33717,29.4764,-24.8701,25.5857,0.561183,-0.72278,-0.399635,-0.0543557,33.3125,0.518906,9.91527,-1.2196,0.315113,9.8294,-0.642962,-0.214786,-0.0832226,0.0531945,-19.4347,-38.9728,13.8958,0.209948,-0.238356,-0.675327,-0.665614,33.9375,9.57384,0.145778,-2.11851,9.66953,0.347655,-1.60288,-0.00888872,-0.0022791,0.0571014,-38.2998,-10.7579,34.7584,0.120345,-0.756007,0.107848,-0.634302
106,3622.82,24,132.0,27.9375,-3.28145,8.61768,-3.77141,-3.42415,8.55568,-3.78156,0.32639,-0.0695856,0.344849,28.6081,-24.824,25.3247,0.560088,-0.724476,-0.398102,-0.0543257,33.3125,0.720718,9.84196,-0.828497,0.374925,9.84446,-0.718842,-0.131605,-0.0513858,0.0663849,-19.0733,-37.955,14.4566,0.209977,-0.238552,-0.67492,-0.665947,33.9375,9.72724,0.219803,-2.00163,9.69972,0.408198,-1.57296,0.00427576,0.0116342,0.0359976,-38.4346,-11.012,33.6236,0.120288,-0.75593,0.107972,-0.634383
106,3622.83,24,132.0,27.9375,-3.17343,8.4261,-3.88461,-3.36526,8.47966,-3.87206,0.312304,-0.0302658,0.354291,28.605,-25.3194,26.5088,0.558581,-0.726274,-0.396869,-0.0548515,33.3125,0.643445,9.87959,-0.86874,0.466781,9.81365,-0.417234,-0.227166,-0.132898,0.141739,-19.0736,-38.0841,14.5983,0.210298,-0.239303,-0.673959,-0.66655,33.9375,9.60687,0.146826,-2.27254,9.68455,0.347658,-1.60296,-0.0306808,-0.0162904,0.0427334,-39.0643,-11.1076,34.1888,0.120281,-0.755926,0.108291,-0.634335
106,3622.84,24,132.0,27.9375,-3.29187,8.27421,-4.00133,-3.3517,8.40395,-3.97761,0.335134,-0.00694888,0.396286,29.3532,-25.1116,25.8498,0.557417,-0.728088,-0.395164,-0.0549476,33.3125,0.224331,9.50462,-0.836393,0.254738,9.75401,-0.597478,-0.171667,-0.155188,0.187722,-19.9655,-38.696,14.5956,0.210203,-0.240098,-0.673089,-0.667172,33.9375,9.68852,0.182393,-2.04038,9.72992,0.302386,-1.52738,-0.0181409,0.026649,0.0707399,-38.2944,-11.0156,34.7587,0.120026,-0.755787,0.108648,-0.634489
106,3622.85,24,131.0,27.9375,-3.29455,8.4629,-4.11747,-3.36804,8.32848,-4.05294,0.364888,0.0325805,0.415498,28.9752,-24.967,26.2434,0.555853,-0.730056,-0.393674,-0.0553797,33.3125,0.607964,9.57926,-0.752244,0.239002,9.58794,-0.537415,-0.176834,-0.225701,0.152801,-18.8098,-38.3516,14.4607,0.210743,-0.241113,-0.672325,-0.667406,33.9375,9.72504,0.220445,-2.07883,9.75971,0.302318,-1.58807,0.009592,-0.00738302,0.0240172,-38.9346,-10.9841,34.6146,0.119818,-0.755801,0.108778,-0.634488
106,3622.86,24,131.0,27.9375,-3.25542,8.46295,-4.0784,-3.36867,8.28315,-4.08304,0.419825,0.00880956,0.427982,28.9713,-24.8426,26.5051,0.554096,-0.732198,-0.392127,-0.0556804,33.3125,0.897642,9.58361,0.0274092,0.435002,9.39089,-0.252031,-0.157561,-0.18765,0.140274,-19.2064,-37.8213,14.5959,0.211203,-0.242121,-0.671503,-0.667723,33.9375,9.72154,0.183441,-2.19441,9.74458,0.362778,-1.61846,0.00959471,0.0440141,0.0418295,-39.0689,-11.1087,33.7633,0.119803,-0.755615,0.108905,-0.634691
106,3622.87,24,131.0,27.9375,-3.24794,8.57844,-3.88624,-3.41249,8.41942,-4.05309,0.411793,0.0198236,0.408178,27.9881,-25.4108,26.1169,0.552307,-0.734254,-0.390748,-0.0560685,33.3125,1.08404,9.73259,-0.124582,0.678777,9.52566,0.124704,-0.0692621,-0.255225,0.128012,-19.3032,-38.8484,13.614,0.211585,-0.243461,-0.670512,-0.668111,33.9375,9.60946,0.22212,-2.1958,9.66941,0.377868,-1.63324,0.0182286,0.0216908,0.0353409,-38.1733,-11.1529,33.9083,0.119758,-0.755516,0.109,-0.634802
106,3622.88,24,131.0,27.9375,-3.28199,8.73116,-3.81029,-3.45593,8.51046,-3.93244,0.388524,0.0483529,0.426343,28.6111,-25.6921,26.3798,0.55079,-0.736113,-0.389326,-0.0565125,33.3125,0.998858,9.80606,-0.436132,0.845587,9.76681,0.0941721,-0.0753393,-0.189185,0.143102,-19.0557,-38.3418,13.7539,0.211795,-0.244701,-0.669638,-0.668468,33.9375,9.76106,0.372725,-2.15659,9.60972,0.453591,-1.54236,-0.0398638,-0.00956902,0.0333194,-37.9065,-11.5516,34.1934,0.120057,-0.755453,0.109255,-0.634776
106,3622.89,24,131.0,27.9375,-3.2434,8.84469,-3.81009,-3.42401,8.72166,-3.93293,0.44162,0.0455003,0.470396,28.9635,-24.5936,27.0286,0.548972,-0.738226,-0.387803,-0.0570985,33.3125,0.873376,9.91679,-0.825974,0.753712,9.97901,-0.403373,-0.0269571,-0.109741,0.150946,-19.9637,-38.0505,13.8869,0.211289,-0.245459,-0.669109,-0.66888,33.9375,9.75736,0.297752,-2.27193,9.72944,0.392987,-1.64875,0.0315959,0.0131311,0.0392345,-38.9248,-11.8883,33.7647,0.120339,-0.75532,0.109308,-0.634872
106,3622.9,24,131.0,27.9375,-3.2434,8.84469,-3.81009,-3.37804,8.75159,-3.87264,0.380584,0.0436515,0.412718,28.2346,-25.1759,25.9837,0.547676,-0.739933,-0.386333,-0.0574221,33.3125,0.718331,9.80379,-0.905858,0.617074,9.9645,-0.599054,-0.0892066,-0.0954948,0.16704,-19.4472,-38.4568,14.1748,0.211017,-0.2462,-0.668609,-0.669193,33.9375,9.76286,0.296146,-2.07891,9.72998,0.302404,-1.51224,-0.0341842,-0.0172308,0.0206587,-38.6811,-11.1268,34.1902,0.120412,-0.755315,0.10956,-0.634821
106,3622.91,24,131.0,27.9375,-3.24955,8.91889,-4.00287,-3.33182,8.82681,-3.82755,0.375559,0.0602341,0.440762,28.1082,-25.6648,27.0368,0.546045,-0.741759,-0.385016,-0.0582335,33.3125,0.883371,9.80616,-0.476945,0.557131,9.84366,-0.432804,-0.105798,-0.0811753,0.184078,-19.9735,-37.4053,13.8832,0.210459,-0.246808,-0.66791,-0.669843,33.9375,9.72654,0.296061,-2.0407,9.68507,0.393181,-1.48202,-0.00113981,0.0274223,0.049523,-39.058,-11.1063,34.7561,0.120206,-0.755191,0.109722,-0.634979
106,3622.92,24,131.0,27.9375,-3.18066,8.91663,-4.19427,-3.34738,8.94757,-4.00901,0.379436,0.0869257,0.435826,27.2298,-25.1214,27.1665,0.544042,-0.74371,-0.383925,-0.0592956,33.3125,0.845157,9.76863,-0.477515,0.52856,9.79802,-0.130513,-0.124707,-0.109365,0.161026,-19.8517,-37.4102,14.3071,0.210409,-0.247576,-0.667164,-0.670318,33.9375,9.80489,0.332592,-1.92435,9.77519,0.347826,-1.48236,-0.00186416,0.00760968,0.020189,-38.5588,-10.8754,34.1903,0.120065,-0.755143,0.109814,-0.635046
106,3622.93,24,131.0,27.9375,-3.18386,8.65072,-4.23191,-3.36637,8.67568,-4.20471,0.392087,0.0639268,0.442769,27.9844,-25.7822,27.169,0.542376,-0.745596,-0.382528,-0.0598994,33.3125,1.07509,9.80582,-0.43475,0.663459,9.73737,-0.146616,-0.0580724,-0.0889092,0.168667,-19.9711,-38.1798,14.4516,0.210216,-0.248441,-0.666655,-0.670565,33.9375,9.65098,0.372794,-2.08054,9.74474,0.468689,-1.58853,0.005924,-0.0146653,0.0152741,-38.5596,-10.6166,34.6155,0.119713,-0.75523,0.1098,-0.635012
106,3622.94,24,131.0,27.9375,-2.95686,8.87627,-4.26775,-3.17133,8.74962,-4.38628,0.393106,0.0803384,0.460859,26.9755,-24.6116,27.0327,0.540381,-0.747654,-0.381182,-0.0608507,33.3125,1.10793,9.54109,-0.588178,0.812955,9.6919,-0.253438,-0.0542253,-0.105079,0.159405,-19.719,-37.6731,14.3095,0.210099,-0.249382,-0.666176,-0.670728,33.9375,9.75866,0.335399,-2.23356,9.69968,0.483804,-1.58834,-0.00684709,-0.0417309,0.0244396,-38.2983,-10.7575,34.9002,0.11941,-0.755383,0.109855,-0.634877
106,3622.95,24,131.0,27.9375,-2.93406,9.21307,-4.76889,-2.99034,8.94447,-4.5681,0.377468,0.176986,0.427844,27.7205,-24.4033,26.7675,0.538703,-0.749401,-0.379986,-0.0617099,33.3125,1.06504,9.46487,-0.743591,0.841916,9.58629,-0.329483,-0.0374745,-0.0282912,0.103489,-19.7083,-38.8346,14.7392,0.210045,-0.249958,-0.666048,-0.670658,33.9375,9.57094,0.222679,-2.23479,9.7446,0.423277,-1.61865,0.0197306,-0.0116102,0.0413345,-39.1986,-10.7143,34.3297,0.119069,-0.755431,0.109941,-0.63487
106,3622.96,24,131.0,27.9375,-3.04128,9.3291,-4.61693,-3.05023,9.12601,-4.70434,0.398243,0.192961,0.417769,26.9728,-24.7352,27.5584,0.53655,-0.75125,-0.379175,-0.0629655,33.3125,1.10544,9.46527,-0.665419,0.840794,9.48075,-0.405345,-0.0150164,-0.0451012,0.0882712,-20.2244,-38.2993,14.3095,0.209735,-0.250414,-0.665824,-0.670807,33.9375,9.72284,0.221088,-2.15604,9.65484,0.423369,-1.52737,0.00918032,0.00498446,0.0383114,-38.1705,-11.2818,33.9085,0.119143,-0.75535,0.110033,-0.634937
106,3622.97,24,131.0,27.9375,-3.14422,9.48408,-4.34959,-3.15319,9.35335,-4.62923,0.358452,0.221076,0.431526,27.5952,-24.8924,27.6893,0.534733,-0.752938,-0.378187,-0.0641796,33.3125,1.10117,9.57719,-0.820744,0.840518,9.4657,-0.435613,-0.0109711,0.0113371,0.0942524,-19.8512,-38.0557,14.8748,0.209549,-0.25086,-0.665853,-0.67067,33.9375,9.61127,0.145541,-2.11812,9.69977,0.362842,-1.55768,-0.0120249,0.0356492,0.0243639,-38.7956,-11.3764,34.8992,0.119228,-0.755188,0.110161,-0.635091
106,3622.98,24,131.0,27.9375,-3.06302,9.52278,-4.19455,-3.25502,9.52047,-4.35768,0.306539,0.286334,0.40538,26.4866,-25.7018,27.8277,0.532764,-0.754494,-0.377574,-0.0658709,33.3125,0.996073,9.61728,-0.51301,0.886242,9.6166,-0.495901,-0.0068287,-0.0143835,0.0728576,-20.363,-37.6493,14.3049,0.209107,-0.25113,-0.66572,-0.670839,33.9375,9.64968,0.335147,-2.11891,9.68461,0.317427,-1.58772,0.0103855,0.0423334,0.0394526,-38.4209,-11.1385,34.6166,0.119116,-0.755024,0.110295,-0.635284
106,3622.99,24,131.0,27.9375,-2.89929,9.41115,-3.80685,-3.16448,9.41421,-4.23673,0.225113,0.326951,0.413984,26.9726,-24.2393,26.768,0.531505,-0.755697,-0.376672,-0.0673981,33.3125,1.06594,9.80375,-0.744676,0.811677,9.64685,-0.4198,-0.0443961,0.0229702,0.0847661,-19.5866,-38.065,14.4537,0.208882,-0.251395,-0.665656,-0.670873,33.9375,9.75916,0.221172,-2.19426,9.71458,0.30229,-1.60297,0.0138207,-0.00762464,0.0161487,-38.4178,-11.1378,34.9003,0.118993,-0.755041,0.110365,-0.635274
106,3623.0,24,131.0,27.9375,-2.83174,9.40856,-4.03675,-3.08888,9.35334,-4.14607,0.191078,0.301858,0.465372,26.2233,-24.447,27.5582,0.530044,-0.75698,-0.375785,-0.0694277,33.3125,0.989409,9.69103,-0.745696,0.842245,9.73736,-0.434834,-0.0234864,0.05594,0.0446197,-20.4915,-37.5155,14.1622,0.208283,-0.251269,-0.665544,-0.671218,33.9375,9.69012,0.0678445,-1.96247,9.71495,0.241901,-1.51197,0.0194482,-0.0197991,0.034955,-38.6764,-11.1257,34.6157,0.118835,-0.755064,0.110519,-0.63525
106,3623.01,24,131.0,27.9375,-2.68326,9.59608,-4.15062,-2.89119,9.47282,-4.05593,0.174349,0.32653,0.491018,25.8513,-24.4272,27.4276,0.528618,-0.758242,-0.374836,-0.0716181,33.3125,0.918999,9.73021,-0.553495,0.842161,9.7525,-0.465015,-0.0177978,0.021757,0.069104,-19.9671,-38.4379,14.4531,0.207994,-0.251477,-0.66555,-0.671223,33.9375,9.72434,0.296704,-2.1179,9.6848,0.317482,-1.54232,0.0456402,-0.0264428,0.0333862,-38.8143,-10.8626,34.1894,0.11854,-0.755142,0.110541,-0.635209
106,3623.02,24,131.0,28.0,-2.38469,9.63068,-4.26173,-2.63523,9.60673,-4.22259,0.198478,0.318712,0.495259,25.9774,-24.8059,27.8233,0.527135,-0.759564,-0.37384,-0.0737199,33.3125,0.957113,9.7301,-0.552804,0.857839,9.76743,-0.37439,0.00374854,0.0575719,0.0127383,-19.9673,-37.6633,13.7437,0.20752,-0.25132,-0.66553,-0.671448,33.9375,9.72374,0.182798,-2.1172,9.7451,0.423426,-1.49758,0.0135329,-0.0664973,-0.0167015,-38.4287,-11.1402,33.9074,0.118689,-0.755322,0.110432,-0.634985
106,3623.03,24,131.0,28.0,-2.37666,9.44333,-3.99156,-2.51467,9.50025,-4.11678,0.199367,0.275948,0.520629,25.3641,-25.6416,28.2233,0.525559,-0.761007,-0.372697,-0.0758498,33.3125,1.07101,9.99305,-0.590316,0.904258,9.85772,-0.253508,-0.0174822,0.0509904,0.0464286,-20.2251,-38.5575,14.593,0.207272,-0.251424,-0.665514,-0.671502,33.9375,9.76207,0.144271,-2.07798,9.66977,0.287229,-1.54214,-0.00175705,-0.0405226,0.0039831,-38.1733,-11.1529,33.9083,0.118837,-0.755399,0.110531,-0.634849
106,3623.04,24,131.0,28.0,-2.27104,9.28902,-4.1819,-2.36461,9.39347,-4.0865,0.169414,0.339095,0.554864,25.7254,-24.7922,28.2174,0.524144,-0.762311,-0.37154,-0.0781867,33.3125,0.921884,9.95665,-0.476736,0.845107,9.91808,-0.147187,-0.0382372,0.0686497,0.0259387,-20.0929,-38.1749,14.0277,0.206947,-0.251314,-0.665356,-0.6718,33.9375,9.69052,0.143782,-1.96294,9.68464,0.196446,-1.5722,0.00554628,-0.0535697,0.0227857,-39.2006,-10.8442,33.9043,0.118749,-0.755529,0.110733,-0.634676
106,3623.05,24,131.0,28.0,-2.11266,9.17605,-3.94822,-2.33637,9.22709,-4.14656,0.23364,0.335021,0.548051,25.7214,-24.4198,28.0839,0.522552,-0.763784,-0.370302,-0.0803177,33.3125,0.923873,9.84421,-0.398893,0.799803,9.91822,-0.177138,-0.0411502,0.0182784,0.0408299,-20.7506,-38.0224,14.7273,0.206802,-0.251417,-0.665183,-0.671978,33.9375,9.76577,0.219245,-1.96264,9.6846,0.272052,-1.58758,0.00675922,-0.0140271,0.00267851,-38.8096,-10.8616,34.6149,0.118631,-0.755575,0.110786,-0.634634
106,3623.06,24,131.0,28.0,-2.11614,9.06156,-4.02486,-2.27787,8.95488,-4.08562,0.281021,0.363149,0.567126,25.1098,-25.3797,28.4847,0.52071,-0.765343,-0.369132,-0.0827835,33.3125,0.844411,9.91898,-0.516738,0.724608,9.94862,-0.206822,-0.0247659,0.101624,-0.0150556,-19.5968,-37.5489,14.5917,0.206797,-0.251147,-0.665399,-0.671867,33.9375,9.68592,0.107098,-2.11712,9.68472,0.272089,-1.55731,0.00670174,-0.0163907,0.0089581,-38.5537,-11.2627,33.9071,0.118811,-0.755565,0.110865,-0.634598
106,3623.07,24,131.0,,,,,,,,,,,,,,,,,,33.3125,0.656672,9.69443,-0.403247,0.694501,9.88823,-0.146365,-0.0385485,0.0756474,0.00738999,-19.9759,-37.4054,14.0242,0.206545,-0.250897,-0.665328,-0.672108,33.9375,9.75916,0.221172,-2.19426,9.69953,0.196412,-1.60255,0.0428897,-0.00313832,0.00208797,-38.447,-9.97889,34.4733,0.118154,-0.755665,0.110827,-0.634609
106,3623.08,24,131.0,,,,,,,,,,,,,,,,,,33.3125,0.812761,9.77004,-0.284502,0.573589,9.78283,-0.130829,-0.00658063,0.100772,-0.0120848,-20.2357,-38.1705,14.8728,0.206469,-0.250595,-0.665548,-0.672025,33.9375,9.57294,0.184068,-2.15735,9.6845,0.393014,-1.61824,0.0575313,0.00272189,-0.00805913,-38.6678,-11.3828,34.8997,0.118138,-0.755664,0.110616,-0.634649
106,3623.09,24,131.0,,,,,,,,,,,,,,,,,,33.3125,0.809429,9.80692,-0.400845,0.558175,9.75272,-0.161048,0.00224072,0.0546706,-0.0379774,-20.1012,-37.0132,13.4571,0.206165,-0.250152,-0.665547,-0.672285,33.9375,9.72484,0.182477,-2.0786,9.75966,0.317424,-1.60326,-0.0097204,-0.0231807,0.00333703,-38.412,-11.7839,34.1919,0.118623,-0.755638,0.110739,-0.634568
106,3623.1,24,131.0,28.0,-1.97087,9.36189,-4.25462,-2.0053,9.37552,-4.35864,0.254217,0.369502,0.571994,24.2321,-24.9603,28.7464,0.5133,-0.771463,-0.364485,-0.0922965,33.3125,0.769872,9.69382,-0.439915,0.649101,9.87328,-0.176359,0.00800242,0.04623,-0.0272569,-19.5737,-38.4519,14.0329,0.206179,-0.249947,-0.665766,-0.67214,33.9375,9.76086,0.334757,-2.15635,9.71472,0.347702,-1.57285,0.0215407,-0.0294098,-0.0171203,-38.4279,-10.8811,34.4744,0.118543,-0.755748,0.110631,-0.634471
106,3623.11,24,131.0,28.0,-1.90357,8.94263,-4.40615,-1.91627,9.22385,-4.3735,0.220383,0.386053,0.587127,23.6018,-24.3062,28.7437,0.511468,-0.772908,-0.363315,-0.0949535,33.3125,0.839238,9.69202,-0.670978,0.678896,9.82793,-0.176671,0.00290381,0.0634438,-0.0275575,-20.2326,-37.9122,14.4483,0.206119,-0.249702,-0.665925,-0.672092,33.9375,9.72473,0.372641,-2.11837,9.71463,0.468664,-1.60351,0.0737626,-0.0483077,-0.0140091,-38.4307,-10.7522,34.4743,0.118203,-0.755965,0.110307,-0.634332
106,3623.12,24,131.0,28.0,-1.75508,8.75144,-4.44177,-1.90412,8.93676,-4.43328,0.228101,0.429624,0.585292,23.2217,-24.4093,29.795,0.509071,-0.774457,-0.362498,-0.0982837,33.3125,0.807142,9.8064,-0.478327,0.723084,9.73736,-0.237651,-0.028639,0.0477992,-0.0275176,-20.0929,-38.1749,14.0277,0.206029,-0.24944,-0.665914,-0.672227,33.9375,9.71883,0.29831,-2.31092,9.68485,0.498982,-1.5429,0.0375668,-0.00947643,-0.000348689,-38.7948,-11.6352,34.474,0.118424,-0.75595,0.110122,-0.634341
106,3623.13,24,131.0,28.0,-1.78833,8.82861,-4.32706,-1.92097,8.71036,-4.41767,0.173783,0.433134,0.595559,23.2323,-25.0305,29.5362,0.507317,-0.775739,-0.361383,-0.101293,33.3125,0.848588,9.7694,-0.361293,0.677768,9.70728,-0.237465,-0.00268315,0.0260449,-0.00675209,-20.2299,-37.783,14.1656,0.20592,-0.249331,-0.665958,-0.672257,33.9375,9.69061,0.371914,-2.00295,9.63968,0.377954,-1.55741,-0.0423424,-0.0302219,-0.0039045,-38.6756,-11.3845,34.1905,0.118839,-0.755966,0.110258,-0.634221
106,3623.14,24,131.0,28.0,-1.78325,8.98138,-4.21204,-1.93591,8.75574,-4.44796,0.100679,0.426675,0.560136,22.8558,-24.7623,29.5354,0.505836,-0.776753,-0.360411,-0.104348,33.3125,0.964821,9.61895,-0.281256,0.69296,9.63163,-0.131988,-0.0378786,0.0473008,-0.0419073,-20.0753,-38.5617,13.325,0.205734,-0.248976,-0.665725,-0.672677,33.9375,9.69061,0.371914,-2.00295,9.72959,0.483774,-1.61877,0.040755,0.0106631,-0.0056656,-38.4248,-10.8804,34.7581,0.118622,-0.755976,0.110033,-0.634289
106,3623.15,24,131.0,28.0,-1.62996,9.28372,-4.21077,-1.85802,8.98179,-4.37303,0.0271376,0.422584,0.579934,22.4822,-24.6183,29.404,0.504707,-0.777554,-0.359314,-0.107583,33.3125,0.956814,9.61714,-0.552442,0.767615,9.60136,-0.192977,0.00430212,0.104617,-0.0350146,-20.3299,-38.2939,12.8987,0.20507,-0.24844,-0.665541,-0.673261,33.9375,9.68621,0.373199,-2.15736,9.65471,0.408207,-1.55759,0.0481185,-0.00145601,0.0233864,-38.5615,-10.7465,34.1901,0.118322,-0.755993,0.109942,-0.63434
106,3623.16,24,131.0,28.0,-1.74627,9.24599,-4.28936,-1.84055,9.13281,-4.23747,-0.0996112,0.453711,0.576776,22.1192,-25.3435,29.4092,0.504139,-0.777912,-0.358258,-0.111125,33.3125,0.993984,9.69207,-0.590733,0.783022,9.61636,-0.147689,-0.00983005,0.0649685,-0.0238234,-20.3568,-37.9073,14.1654,0.204946,-0.248212,-0.665598,-0.673325,33.9375,9.90616,0.335093,-2.30922,9.65476,0.332601,-1.54221,0.0200194,-0.0280096,0.0293654,-38.6791,-10.9969,34.6155,0.118158,-0.756057,0.110022,-0.634281
106,3623.17,24,131.0,28.0,-1.59671,9.01719,-4.28634,-1.76558,9.13223,-4.28285,-0.165393,0.43197,0.558503,22.1237,-25.592,29.2794,0.504049,-0.778031,-0.357068,-0.114477,33.3125,1.10624,9.7665,-0.666383,0.828638,9.72195,-0.177883,-0.00955383,0.10345,-0.0561952,-20.6008,-38.0265,13.4593,0.204489,-0.247619,-0.665557,-0.673723,33.9375,9.83532,0.258345,-2.15512,9.71487,0.423364,-1.54282,0.0328035,-0.0522874,0.00711468,-38.2749,-11.7882,35.0434,0.118317,-0.75617,0.10999,-0.634122
106,3623.18,24,131.0,28.0,-1.55624,8.63884,-4.13051,-1.75191,8.89056,-4.20683,-0.206812,0.402324,0.571211,22.2396,-24.9777,29.2755,0.504155,-0.778105,-0.355691,-0.117746,33.3125,1.14789,9.80481,-0.54959,0.828752,9.78238,-0.223045,-0.0206274,0.0809567,-0.0421082,-20.0906,-38.1748,13.8868,0.204372,-0.247265,-0.665644,-0.673803,33.9375,9.72214,0.297346,-2.19511,9.71455,0.408146,-1.61845,0.0111867,-0.062088,0.00617814,-37.9221,-10.5192,34.7595,0.117979,-0.756406,0.109968,-0.633907
106,3623.19,24,131.0,28.0,-1.52112,8.44852,-4.16783,-1.70961,8.60326,-4.26664,-0.224954,0.417434,0.554749,21.2587,-25.7942,29.0199,0.504214,-0.778103,-0.354486,-0.121096,33.3125,1.22441,9.91753,-0.54857,0.85857,9.79749,-0.283632,-0.00626323,0.109338,-0.0621937,-19.8157,-38.7002,13.3276,0.20409,-0.246731,-0.665754,-0.673975,33.9375,9.61127,0.145541,-2.11812,9.71467,0.393058,-1.58813,0.0418781,0.0158966,0.0290469,-38.8104,-10.6028,35.0401,0.117526,-0.756391,0.109905,-0.63402
106,3623.2,24,131.0,28.0,-1.30454,8.3306,-4.4336,-1.60615,8.34579,-4.25109,-0.143217,0.372334,0.535142,20.506,-25.7535,29.8086,0.503391,-0.778531,-0.353521,-0.124537,33.3125,0.956368,9.88045,-0.592027,0.843331,9.75222,-0.268559,0.0132904,0.0847178,-0.0940618,-20.3561,-37.6491,13.8819,0.204005,-0.246192,-0.665991,-0.673964,33.9375,9.72473,0.372641,-2.11837,9.69934,0.408087,-1.66377,0.0117947,-0.0730624,0.0431005,-38.549,-11.2617,34.3326,0.117562,-0.756564,0.11006,-0.63378
106,3623.21,24,131.0,28.0,-1.42245,8.06523,-4.51145,-1.56334,8.19433,-4.3867,-0.0143128,0.385189,0.524707,21.2598,-25.7944,28.8887,0.50291,-0.779046,-0.352212,-0.126948,33.3125,0.92253,9.76865,-0.437393,0.784185,9.8277,-0.177307,-0.0108905,0.114562,-0.0754503,-19.9778,-37.2763,14.0234,0.203979,-0.245666,-0.666215,-0.673943,33.9375,9.79859,0.182324,-2.11643,9.71462,0.438414,-1.60341,0.0397447,0.00364725,0.0171104,-38.4318,-10.623,34.616,0.117245,-0.756581,0.109943,-0.633839
106,3623.22,24,131.0,28.0,-1.42112,8.25493,-4.51207,-1.51978,8.04295,-4.43172,0.0316914,0.380092,0.552718,20.3782,-25.2506,29.4121,0.501763,-0.779854,-0.351032,-0.129763,33.3125,0.923374,9.65594,-0.39829,0.784156,9.75213,-0.101963,0.00333648,0.0948506,-0.0381344,-19.9599,-37.534,13.179,0.203606,-0.245236,-0.666223,-0.674204,33.9375,9.57714,0.144814,-2.0027,9.69958,0.377911,-1.60313,-0.0175138,-0.00164591,0.0145468,-38.3029,-10.7585,34.4747,0.117242,-0.756563,0.110041,-0.633843
106,3623.23,24,131.0,28.0,-1.30534,8.21679,-4.43323,-1.47419,8.10301,-4.447,0.0667122,0.354912,0.527295,20.013,-25.9755,29.6797,0.500324,-0.780777,-0.350028,-0.132455,33.3125,0.930536,9.77046,-0.166207,0.7849,9.81241,-0.0413425,0.0018935,0.0865137,-0.0670475,-20.3521,-37.9072,13.8834,0.203531,-0.244808,-0.666345,-0.674262,33.9375,9.84392,0.217807,-1.84606,9.66993,0.408266,-1.51226,0.0406151,-0.0187598,-0.0209089,-38.81,-10.9912,34.3314,0.117269,-0.756619,0.109797,-0.633814
106,3623.24,24,131.0,28.0,-1.22121,8.29409,-4.2013,-1.42708,8.22359,-4.34161,0.0604364,0.364002,0.467343,20.2545,-25.6159,29.9395,0.49907,-0.78147,-0.349291,-0.135017,33.3125,0.890233,9.80771,-0.2445,0.725082,9.78224,0.0496065,0.0053403,0.073944,-0.0552762,-19.4465,-38.1986,13.8914,0.203699,-0.244542,-0.6666,-0.674055,33.9375,9.76247,0.220208,-2.07845,9.71461,0.393039,-1.60326,0.00552285,-0.0558171,0.039307,-38.5416,-11.3895,34.7583,0.117345,-0.756727,0.109959,-0.633643
106,3623.25,24,131.0,28.0,-1.29411,8.10599,-4.0863,-1.36718,8.13259,-4.29617,0.0905666,0.341082,0.436079,20.0118,-25.7274,29.4158,0.497993,-0.782187,-0.348398,-0.137132,33.3125,0.847743,9.8821,-0.400395,0.695839,9.85768,0.110452,-0.00691171,0.0348202,-0.0660828,-20.4684,-38.4185,13.6035,0.203726,-0.24423,-0.666529,-0.67423,33.9375,9.75826,0.259462,-2.23309,9.74471,0.37794,-1.58824,-0.0324129,-0.0423876,0.0290926,-38.7987,-11.3771,34.6155,0.11761,-0.756769,0.11019,-0.633503
106,3623.26,24,131.0,28.0,-1.18743,8.29279,-4.31626,-1.33666,8.13241,-4.25089,0.0971353,0.3183,0.454649,20.0136,-26.0995,29.8117,0.496909,-0.782961,-0.347385,-0.139201,33.3125,0.806843,9.69344,-0.477965,0.634204,9.78259,-0.0556322,0.00871976,0.0533279,-0.0499494,-19.8259,-38.1841,13.4656,0.203689,-0.24392,-0.666638,-0.674246,33.9375,9.61536,0.296451,-2.00325,9.71487,0.438489,-1.54287,0.0178546,0.0124666,0.00925807,-38.6776,-10.9965,34.7574,0.117562,-0.756715,0.110105,-0.633592
106,3623.27,24,131.0,28.0,-1.29545,8.29501,-4.16393,-1.3516,8.25323,-4.35685,0.083765,0.278532,0.446505,19.2614,-25.9349,30.3372,0.49552,-0.783742,-0.346677,-0.1415,33.3125,0.774845,9.84547,-0.285434,0.616691,9.6774,-0.358084,0.05285,0.0479966,-0.0286535,-20.0809,-38.0454,13.1811,0.203291,-0.243608,-0.666844,-0.674275,33.9375,9.76046,0.258819,-2.15589,9.63955,0.362792,-1.58763,0.0148912,-0.0525136,0.00233898,-38.8026,-11.119,34.7571,0.117574,-0.756859,0.110097,-0.633419
106,3623.28,24,131.0,28.0,-1.36834,7.91754,-4.0098,-1.38313,8.08734,-4.35645,0.0720768,0.266694,0.419231,19.2664,-26.3075,30.3394,0.494354,-0.78449,-0.345803,-0.143559,33.3125,0.88909,9.80745,-0.283241,0.66452,9.9185,-0.161209,0.0241272,0.102898,-0.0645131,-19.4368,-38.0692,13.1857,0.203102,-0.243092,-0.667108,-0.674257,33.9375,9.64449,0.184557,-2.27238,9.74441,0.408097,-1.66401,-0.0129712,0.0049641,0.0382529,-38.6705,-11.2539,34.8995,0.117653,-0.75679,0.11027,-0.633457
106,3623.29,24,131.0,28.0,-1.18554,7.61157,-4.12149,-1.41418,7.83096,-4.20485,0.0544621,0.270489,0.386536,19.0189,-26.5423,30.6038,0.493214,-0.785143,-0.3451,-0.145592,33.3125,0.831431,9.76552,-0.942405,0.739944,9.78225,0.0192916,0.025116,0.0275455,-0.0330388,-20.0812,-38.1745,13.3228,0.202991,-0.242968,-0.667107,-0.674336,33.9375,9.64869,0.145304,-2.11774,9.74484,0.377977,-1.55797,-0.0679395,-0.0338752,0.022777,-38.6776,-10.9965,34.7574,0.117841,-0.756821,0.110565,-0.633333
106,3623.3,24,131.0,28.0,-1.26219,7.46039,-4.12213,-1.41634,7.55915,-4.18915,0.138214,0.24326,0.376723,18.8932,-25.7917,29.5496,0.491976,-0.785954,-0.344319,-0.147239,33.3125,0.796748,9.76641,-0.826874,0.72192,9.75275,-0.449176,0.0641261,0.0305621,-0.0184918,-20.0847,-38.5619,13.889,0.202839,-0.24289,-0.66751,-0.674011,33.9375,9.68541,0.221325,-2.15642,9.71457,0.24179,-1.60278,-0.0102837,-0.0156657,0.0191608,-38.6889,-10.6106,34.4732,0.117695,-0.756854,0.110751,-0.633288
106,3623.31,24,131.0,28.0,-1.19062,7.64816,-4.27564,-1.37303,7.39266,-4.24924,0.196301,0.188153,0.343115,19.0177,-26.2942,30.3398,0.490737,-0.786861,-0.34352,-0.148395,33.3125,0.647123,9.54174,-0.712691,0.494644,9.66295,-0.629416,0.084052,-0.00143835,-0.0156664,-20.7382,-37.7638,13.7389,0.202453,-0.242692,-0.667901,-0.673812,33.9375,9.68522,0.183356,-2.15619,9.7146,0.347665,-1.60312,0.0178561,-0.0171957,0.0444281,-38.5475,-11.2613,34.4745,0.1177,-0.756844,0.110882,-0.633276
106,3623.32,24,131.0,28.0,-1.26701,7.91365,-4.35466,-1.32667,7.57351,-4.29498,0.22913,0.142032,0.317822,19.1325,-25.4318,30.0719,0.489536,-0.787843,-0.342648,-0.149166,33.3125,0.808333,9.39273,-0.399519,0.479424,9.4363,-0.418406,0.00553246,0.0306407,-0.0269851,-19.8329,-38.1843,13.8886,0.202462,-0.24246,-0.668176,-0.67362,33.9375,9.76097,0.144592,-2.11658,9.72946,0.226631,-1.63308,-0.0203752,-0.0626658,-0.000999993,-38.6854,-10.4803,35.0404,0.117482,-0.757058,0.111046,-0.633032
106,3623.33,24,131.0,28.0,-1.26888,7.83744,-4.39292,-1.32602,7.76972,-4.41622,0.219901,0.136652,0.25068,18.5213,-26.0199,29.8142,0.48848,-0.788638,-0.342062,-0.149768,33.3125,1.13672,9.62288,0.380101,0.630876,9.32991,-0.13249,0.049167,-0.0213289,-0.0443483,-20.0852,-37.9165,13.3213,0.202451,-0.242407,-0.668259,-0.673559,33.9375,9.83351,0.334925,-2.23279,9.72967,0.287187,-1.58787,-0.00223788,-0.00594841,0.0413298,-38.669,-11.2536,35.0413,0.117487,-0.757011,0.111255,-0.633051
106,3623.34,24,131.0,28.0,-1.22735,7.98957,-4.31583,-1.34147,7.83014,-4.52204,0.186279,0.144932,0.298973,18.2659,-25.7578,30.2069,0.487216,-0.78951,-0.341402,-0.150795,33.3125,0.998412,10.0694,-0.475716,0.86154,9.79679,0.215064,-0.0499474,0.00489829,-0.0527292,-19.571,-38.3228,13.7502,0.202874,-0.242409,-0.668096,-0.673593,33.9375,9.68632,0.183035,-2.11759,9.72964,0.408168,-1.60339,-0.0188694,-0.0148984,-0.0115764,-38.5448,-11.3902,34.4746,0.117873,-0.756996,0.111253,-0.632998
106,3623.35,24,131.0,28.0,-1.27183,7.98819,-4.50893,-1.35589,7.99629,-4.61299,0.144379,0.13745,0.207104,18.5113,-25.5227,30.2049,0.486344,-0.79001,-0.341216,-0.151415,33.3125,0.803164,10.0313,-0.634014,0.725801,10.0088,-0.0706406,0.0482509,0.0384813,-0.0427044,-19.8264,-37.5387,12.898,0.202596,-0.242167,-0.668139,-0.673721,33.9375,9.64429,0.146589,-2.27215,9.72955,0.332524,-1.61828,-0.03094,-0.0193427,-0.0116498,-38.4209,-11.1385,34.6166,0.118129,-0.757013,0.111338,-0.632914
106,3623.36,24,131.0,28.0,-1.19973,8.25184,-4.66269,-1.29585,8.08636,-4.73406,0.0466055,0.113181,0.208386,18.5163,-25.8952,30.2072,0.48599,-0.790299,-0.340784,-0.15201,33.3125,0.759131,9.9548,-0.828167,0.558738,10.0398,-0.371794,0.0351433,0.0794359,-0.0422051,-20.7303,-38.28,13.7419,0.202188,-0.241655,-0.668385,-0.673784,33.9375,9.72324,0.297025,-2.15651,9.66921,0.317312,-1.67845,0.0121317,-0.00535212,-0.0035279,-38.4451,-9.84898,34.8987,0.117515,-0.757133,0.111302,-0.632891
106,3623.37,24,131.0,28.0,-1.27477,8.13894,-4.62494,-1.34018,8.19239,-4.73425,0.00256087,0.0818107,0.190922,18.3903,-26.0123,30.6019,0.485709,-0.790486,-0.340453,-0.152678,33.3125,0.621442,9.92099,-0.32718,0.51377,9.97938,-0.281023,-0.00408369,0.0881239,-0.0317091,-19.8329,-38.1843,13.8886,0.202083,-0.24125,-0.668639,-0.673708,33.9375,9.72394,0.220767,-2.11744,9.69919,0.3173,-1.69375,0.0277029,0.0000236305,0.0178324,-38.4131,-11.6547,34.3335,0.117811,-0.75706,0.111334,-0.632918
106,3623.38,24,131.0,28.0,-1.38172,8.10355,-4.43399,-1.41414,8.26852,-4.64373,-0.0601803,0.0346149,0.12758,18.2688,-26.13,30.4716,0.485873,-0.790373,-0.340283,-0.153115,33.3125,0.969894,9.80825,-0.126896,0.650931,9.94843,0.0505367,-0.0822157,-0.00560578,0.00713703,-19.06,-38.2128,13.8941,0.202504,-0.241377,-0.668531,-0.673644,33.9375,9.46176,0.184458,-2.1199,9.72949,0.317381,-1.63337,0.0517655,0.00647702,0.0179563,-38.4237,-11.0096,34.6164,0.117636,-0.757036,0.11126,-0.632992
106,3623.39,24,131.0,28.0,-1.26808,8.14062,-4.43241,-1.43035,8.13272,-4.64342,-0.02087,0.0391121,0.114034,18.523,-26.144,29.815,0.486287,-0.790235,-0.340014,-0.153115,33.3125,1.15505,9.91932,-0.317507,0.77125,9.91793,0.0799471,-0.0271997,0.0291559,-0.00180467,-20.1,-37.4005,13.7413,0.202476,-0.241369,-0.668375,-0.67381,33.9375,9.53281,0.299174,-2.27424,9.6544,0.423239,-1.63331,0.00766638,0.0143569,0.000583868,-38.4209,-11.1385,34.6166,0.117752,-0.75697,0.111196,-0.633062
106,3623.4,24,131.0,28.0,-1.31202,8.02575,-4.58663,-1.38565,8.02672,-4.59793,-0.0309886,0.00586333,0.0677058,18.2693,-26.2541,30.6036,0.486348,-0.790161,-0.340033,-0.153263,33.3125,1.0321,9.69195,-0.590042,0.859938,9.84251,-0.102158,-0.0194923,0.0250557,-0.0357037,-20.4802,-37.6442,13.599,0.202356,-0.24119,-0.66825,-0.674034,33.9375,9.79769,0.220614,-2.15527,9.69971,0.377948,-1.57286,0.0342376,-0.035155,0.0175197,-38.5572,-10.3571,35.3244,0.1172,-0.757135,0.111118,-0.63298
106,3623.41,24,131.0,28.0,-1.12228,8.13811,-4.58417,-1.38503,8.0117,-4.50729,0.027118,0.0299744,0.0558735,18.0217,-26.2409,30.4728,0.486089,-0.790315,-0.339929,-0.153516,33.3125,1.06897,9.65391,-0.627972,0.873288,9.6615,-0.19344,-0.0345394,0.0587155,-0.00431029,-20.2253,-37.7829,13.8836,0.202217,-0.241085,-0.66819,-0.674173,33.9375,9.61477,0.182546,-2.00255,9.65405,0.271897,-1.7085,-0.0080144,-0.0514503,0.0235576,-38.5432,-11.3899,34.6165,0.117417,-0.757228,0.111336,-0.63279
106,3623.42,24,131.0,28.0,-1.11693,8.13945,-4.43015,-1.29498,8.04118,-4.58295,0.0673349,-0.00522557,0.0276877,18.266,-26.0057,30.6021,0.485794,-0.790442,-0.340118,-0.153384,33.3125,0.994431,9.42875,-0.551148,0.918052,9.66148,-0.254161,0.00981961,0.0564213,-0.041991,-20.7046,-39.0539,12.9004,0.201686,-0.240746,-0.667978,-0.674663,33.9375,9.61547,0.106287,-1.96348,9.68423,0.30219,-1.67848,-0.0170184,-0.010838,-0.00601928,-38.8092,-10.732,34.8984,0.117396,-0.757267,0.111408,-0.632735
106,3623.43,24,131.0,28.0,-1.08181,8.13848,-4.50659,-1.15808,8.14595,-4.53802,0.0826605,-0.0236696,-0.0136518,18.3797,-25.3911,30.8606,0.485385,-0.790568,-0.340479,-0.153222,33.3125,1.11012,9.50396,-0.510576,0.871687,9.48049,-0.269519,-0.0122977,0.0948945,-0.0413674,-20.2162,-38.6863,14.1708,0.201656,-0.240474,-0.668197,-0.674552,33.9375,9.64889,0.183272,-2.11797,9.71453,0.332521,-1.6182,-0.00305771,-0.00147681,0.00355811,-38.6803,-10.8676,34.7572,0.117393,-0.757255,0.111438,-0.632744
106,3623.44,24,131.0,28.0,-0.86096,8.24887,-4.69609,-1.0831,8.17555,-4.61367,0.0512711,-0.0252823,-0.0216342,18.2659,-25.7578,30.2069,0.485337,-0.790613,-0.34061,-0.152854,33.3125,0.954029,9.42835,-0.629321,0.871771,9.46535,-0.239338,0.0154704,0.0428529,-0.0570943,-19.7034,-37.9308,13.6061,0.201732,-0.240315,-0.668412,-0.674372,33.9375,9.68082,0.184641,-2.3106,9.68453,0.272033,-1.60271,0.0395276,-0.00215117,0.00681481,-38.6826,-11.1271,34.0483,0.117469,-0.757221,0.111373,-0.632783
106,3623.45,24,131.0,28.0,-0.894738,8.25017,-4.58114,-1.00799,8.23533,-4.70448,0.0258503,-0.0337426,-0.0690328,18.5085,-25.3983,30.3354,0.485385,-0.790579,-0.340823,-0.152399,33.3125,1.07499,9.76817,-0.434629,0.857299,9.54083,-0.223919,-0.00207848,0.0486822,-0.027835,-20.0761,-38.8199,13.6085,0.201624,-0.240175,-0.668475,-0.674392,33.9375,9.72964,0.257129,-1.92465,9.6844,0.256871,-1.63293,0.0153252,0.0126384,0.0163427,-38.4307,-10.7522,34.4743,0.117349,-0.757168,0.111434,-0.632857
106,3623.46,24,131.0,28.0,-0.826115,8.39933,-4.81154,-1.00685,8.31089,-4.64424,0.0363095,-0.0331343,-0.0538358,18.2576,-25.6327,30.9935,0.485125,-0.790612,-0.341187,-0.152244,33.3125,1.03409,9.5795,-0.512199,0.843673,9.7068,-0.162905,-0.0142285,0.098127,-0.0395567,-20.0961,-37.6586,13.7428,0.201464,-0.239839,-0.668566,-0.67447,33.9375,9.72134,0.145472,-2.19417,9.69957,0.317411,-1.60294,0.00671741,-0.0684476,0.00453126,-38.9361,-10.9845,34.4728,0.117381,-0.757351,0.111481,-0.632624
106,3623.47,24,131.0,28.0,-0.739039,8.51525,-4.50273,-1.03586,8.3414,-4.53857,0.023519,-0.0150926,-0.0885155,18.2586,-25.137,30.0719,0.485158,-0.790459,-0.341632,-0.151932,33.3125,0.801969,9.57944,-0.632567,0.828566,9.76731,-0.238201,-0.0525974,0.0402184,-0.0557247,-19.963,-37.7923,13.6035,0.201565,-0.239574,-0.668511,-0.674588,33.9375,9.80099,0.21965,-2.03946,9.69969,0.287199,-1.57257,0.0564059,-0.00613207,-0.00420644,-38.7913,-11.505,35.0412,0.11744,-0.75734,0.111337,-0.632652
106,3623.48,24,131.0,28.0,-0.886986,8.40361,-4.3891,-1.00559,8.38646,-4.56891,-0.0397068,-0.0031919,-0.131573,18.2598,-25.3851,30.3359,0.485405,-0.790093,-0.342226,-0.151712,33.3125,0.884714,9.88172,-0.438445,0.798579,9.78247,-0.237976,0.0215918,0.083493,-0.0416196,-20.212,-38.0407,13.3211,0.20122,-0.239199,-0.668639,-0.674697,33.9375,9.83221,0.297277,-2.27116,9.71464,0.272058,-1.58774,0.0229983,-0.0643075,-0.00877862,-38.4225,-11.1388,34.4748,0.117517,-0.75751,0.111315,-0.632438
106,3623.49,24,131.0,28.0,-0.592692,8.39926,-4.61561,-0.945429,8.41619,-4.61433,-0.0129428,0.00528769,-0.144319,17.8934,-25.8619,30.3395,0.485449,-0.789822,-0.342881,-0.151505,33.3125,0.890233,9.80771,-0.2445,0.723828,9.79765,-0.17703,0.00410972,0.0746027,-0.0139661,-20.0952,-38.1749,14.1687,0.201203,-0.239076,-0.668853,-0.674534,33.9375,9.60816,0.184473,-2.23417,9.74445,0.33249,-1.64863,0.0209592,-0.0234021,0.00892987,-38.2916,-11.1445,34.7589,0.117526,-0.757558,0.111319,-0.632378
106,3623.5,24,131.0,28.0,-0.628886,8.81655,-4.65604,-0.870325,8.4458,-4.67488,-0.0193175,-0.029656,-0.133832,18.6357,-25.7772,30.5999,0.485717,-0.78957,-0.343274,-0.151065,33.3125,0.808186,9.769,-0.439465,0.694303,9.84293,-0.131383,0.00151998,0.0753918,-0.0128923,-19.6764,-39.0919,13.0488,0.200924,-0.238831,-0.668874,-0.674682,33.9375,9.71773,0.298631,-2.34952,9.74428,0.40806,-1.69428,-0.0146445,-0.0440979,0.00627886,-38.6748,-11.1254,34.7575,0.117662,-0.757664,0.111393,-0.632212
106,3623.51,24,131.0,28.0,-0.818634,8.70419,-4.65851,-0.794336,8.53585,-4.69025,-0.0262691,-0.0269438,-0.122137,18.3758,-25.0187,30.7271,0.485753,-0.789366,-0.343754,-0.150927,33.3125,0.771315,9.80703,-0.401536,0.649533,9.82783,-0.0555933,0.00141437,0.0466757,-0.0120424,-20.2011,-38.2986,12.8997,0.200582,-0.238603,-0.668743,-0.674995,33.9375,9.72685,0.143866,-2.00116,9.69926,0.332443,-1.67866,0.0560427,-0.0203767,0.0279563,-38.6666,-11.512,34.758,0.117671,-0.757685,0.111367,-0.63219
106,3623.52,24,131.0,28.0,-0.819167,8.62831,-4.65826,-0.808894,8.64163,-4.73577,-0.0387044,-0.00584816,-0.137494,17.6391,-25.5999,30.6009,0.485634,-0.789185,-0.344327,-0.150949,33.3125,0.731112,9.88194,-0.47995,0.604133,9.81288,-0.0855879,0.00325448,0.0471979,0.000687704,-20.3389,-38.165,13.321,0.200297,-0.238425,-0.668723,-0.675162,33.9375,9.72264,0.183119,-2.1558,9.68436,0.317352,-1.64826,0.0596176,-0.0387448,-0.00371609,-38.6756,-10.8666,35.1827,0.117364,-0.757845,0.111204,-0.632084
106,3623.53,24,131.0,28.0,-0.590826,8.66483,-4.61647,-0.748868,8.58081,-4.7055,-0.0438731,-0.00735887,-0.128419,18.2682,-26.2539,30.7348,0.485832,-0.788929,-0.344711,-0.150773,33.3125,0.430571,9.80862,-0.330272,0.514527,9.84317,-0.00939612,-0.0326787,0.0225719,-0.00123243,-19.9528,-38.3084,13.4655,0.200323,-0.238335,-0.668646,-0.675263,33.9375,9.68062,0.146673,-2.31037,9.68431,0.362709,-1.66354,0.0134833,-0.0152791,-0.0146458,-38.6885,-10.481,34.7567,0.117164,-0.757935,0.111109,-0.63203
106,3623.54,24,131.0,28.0,-0.706869,8.66504,-4.69519,-0.763305,8.64134,-4.69052,0.0279513,-0.0508676,-0.11468,18.257,-25.2607,30.4663,0.485765,-0.78889,-0.34505,-0.150419,33.3125,0.511773,9.96004,-0.17441,0.334792,9.9492,0.00710924,-0.0562179,0.0202898,0.0238084,-20.4802,-37.6442,13.599,0.200233,-0.238203,-0.668445,-0.675535,33.9375,9.7962,0.144998,-2.1934,9.65445,0.362758,-1.61798,0.00193709,-0.0324286,0.0127338,-38.4279,-10.8811,34.4744,0.117171,-0.758005,0.111156,-0.631937
106,3623.55,24,131.0,28.0,-0.630219,8.62685,-4.65542,-0.748739,8.62609,-4.7358,-0.0162054,-0.0523372,-0.109455,18.7578,-25.5356,30.467,0.486059,-0.788733,-0.345198,-0.149954,33.3125,0.506999,9.88369,-0.329132,0.274813,9.96441,0.022628,-0.0319765,0.010714,0.0148587,-19.9325,-38.566,12.48,0.20001,-0.238038,-0.668145,-0.675956,33.9375,9.68302,0.183999,-2.2334,9.69937,0.302231,-1.6483,0.00923229,-0.0411687,-0.0180507,-38.412,-11.266,35.1841,0.117303,-0.758114,0.111127,-0.631787
106,3623.56,24,131.0,28.0,-0.628082,8.741,-4.61729,-0.778881,8.61122,-4.72064,0.0256286,0.00696723,-0.0485028,18.1342,-25.1303,30.0721,0.485979,-0.78874,-0.345336,-0.149853,33.3125,0.772757,9.92025,-0.363157,0.393746,9.84354,-0.084229,-0.0546259,0.0110078,0.0696835,-20.2058,-38.2988,13.1816,0.199736,-0.238085,-0.667879,-0.676283,33.9375,9.79589,0.297193,-2.23294,9.7295,0.362756,-1.63351,0.0127907,-0.0407628,0.028439,-38.558,-10.6162,34.7573,0.117038,-0.758239,0.111203,-0.631672
106,3623.57,24,131.0,28.0,-0.770947,8.59276,-4.34952,-0.718849,8.62584,-4.76603,0.0295188,-0.00926267,-0.063181,18.3736,-25.0184,30.9896,0.485597,-0.788814,-0.34567,-0.149931,33.3125,0.882972,9.65555,-0.476463,0.588264,9.76777,-0.176299,-0.0544992,-0.0175924,0.0656642,-20.4571,-38.5473,13.0403,0.199441,-0.238234,-0.667524,-0.676668,33.9375,9.75976,0.335078,-2.19496,9.71415,0.33241,-1.70901,-0.0199125,-0.0488036,0.00464539,-38.183,-10.2487,34.7582,0.116785,-0.758423,0.111316,-0.631478
106,3623.58,24,131.0,28.0,-0.594837,8.66383,-4.73199,-0.702393,8.65606,-4.63021,0.0206581,-0.0105859,-0.0750378,18.5158,-26.0191,30.4704,0.485677,-0.788741,-0.345828,-0.149692,33.3125,0.915268,9.61648,-0.669355,0.782872,9.69197,-0.253256,-0.0529246,-0.0108922,0.0598417,-19.9556,-37.663,13.0388,0.199241,-0.238456,-0.667271,-0.676898,33.9375,9.64948,0.297178,-2.11867,9.69915,0.392906,-1.70913,-0.0153701,-0.038582,-0.0110016,-38.0514,-10.5132,34.6172,0.116738,-0.758562,0.111316,-0.63132
106,3623.59,24,131.0,28.0,-0.629149,8.58925,-4.61679,-0.702648,8.61077,-4.61501,0.0341352,-0.00646096,-0.0855914,18.2671,-26.0058,30.4708,0.4856,-0.788715,-0.346083,-0.149492,33.3125,1.03314,9.65455,-0.551181,0.948129,9.6463,-0.239274,-0.0766289,0.0453081,0.0388063,-20.0812,-38.1745,13.3228,0.199054,-0.23851,-0.667054,-0.677148,33.9375,9.72363,0.372962,-2.15697,9.69927,0.392943,-1.67886,0.0149944,-0.0217712,-0.00918852,-38.1686,-11.1519,34.3338,0.116956,-0.758595,0.111227,-0.631255
106,3623.6,24,131.0,28.0,-0.597782,8.81458,-4.84801,-0.658316,8.61035,-4.72076,0.0294971,-0.0297691,-0.0488026,18.1343,-25.3783,30.4673,0.485383,-0.788835,-0.346156,-0.149394,33.3125,1.14614,9.57863,-0.587608,0.963632,9.67638,-0.193942,-0.0809851,0.0186333,0.0223266,-20.0868,-37.6583,13.1788,0.198975,-0.238585,-0.666764,-0.677431,33.9375,9.68451,0.259615,-2.19526,9.71418,0.438284,-1.70935,-0.0355541,-0.00736648,0.0262618,-38.5635,-10.3585,34.757,0.116785,-0.758623,0.11139,-0.631225
106,3623.61,24,131.0,28.0,-0.665601,8.58988,-4.57885,-0.733542,8.62599,-4.72072,-0.0227368,-0.0203679,-0.0984815,18.5118,-25.6467,30.3369,0.485626,-0.788656,-0.346339,-0.149124,33.3125,1.11822,9.54343,-0.239511,1.00839,9.66125,-0.239594,-0.0513948,0.060678,0.0151914,-20.3416,-38.2942,13.6037,0.198851,-0.238587,-0.6667,-0.677529,33.9375,9.71954,0.222052,-2.27185,9.69933,0.362712,-1.66362,-0.0153647,0.0106571,0.0312104,-38.1678,-10.8928,34.9009,0.116781,-0.758548,0.11154,-0.631289
106,3623.62,24,131.0,28.0,-0.511235,8.66526,-4.49982,-0.748743,8.58082,-4.6904,-0.0278272,0.00102328,-0.107885,18.8799,-25.542,30.7292,0.485828,-0.788438,-0.346629,-0.148947,33.3125,1.03399,9.54185,-0.512078,0.993703,9.64609,-0.163987,-0.0545058,0.0679473,0.0195419,-19.6869,-38.705,13.3286,0.198778,-0.238587,-0.666706,-0.677545,33.9375,9.75897,0.183203,-2.19402,9.65426,0.347577,-1.66334,-0.038643,-0.0228323,0.0142925,-38.4369,-10.7535,33.9069,0.116996,-0.758558,0.111717,-0.631206
106,3623.63,24,131.0,28.0,-0.510436,8.77907,-4.50019,-0.7186,8.59569,-4.70556,-0.0154547,0.0120344,-0.11071,18.6514,-26.771,30.3435,0.486221,-0.788143,-0.346886,-0.148624,33.3125,1.15112,9.73028,-0.433127,0.962889,9.6161,-0.254563,-0.0582211,0.0938638,-0.00190668,-20.3444,-37.6488,13.177,0.198436,-0.23831,-0.666595,-0.677852,33.9375,9.53602,0.0700779,-2.11843,9.71446,0.302253,-1.63324,-0.00211783,0.000963741,0.00673442,-38.424,-11.1392,34.3329,0.117216,-0.758492,0.111771,-0.631234
106,3623.64,24,131.0,28.0,-0.548225,8.77937,-4.50076,-0.703019,8.68617,-4.73598,-0.0326326,-0.0132462,-0.106737,18.3929,-25.3929,29.2858,0.486443,-0.787946,-0.347108,-0.148424,33.3125,1.26859,9.61774,-0.31447,0.918226,9.64632,-0.208868,-0.0539795,0.131847,-0.0128836,-20.8386,-38.4038,12.6138,0.19771,-0.237727,-0.666348,-0.678511,33.9375,9.68522,0.183356,-2.15619,9.63895,0.2265,-1.72341,0.0381721,-0.0182929,0.012174,-38.4182,-11.2674,34.6167,0.11727,-0.758515,0.111801,-0.631192
106,3623.65,24,131.0,28.0,-0.55117,8.93012,-4.61677,-0.703264,8.76158,-4.84185,-0.0117207,0.024937,-0.100218,17.8812,-25.3644,30.9927,0.485958,-0.787948,-0.347643,-0.148756,33.3125,1.22342,9.541,-0.547364,0.993709,9.6612,-0.179055,-0.0843181,0.148028,0.0281812,-20.3333,-38.6813,13.4649,0.197336,-0.23745,-0.666273,-0.678791,33.9375,9.60486,0.185437,-2.34997,9.65404,0.241647,-1.7084,0.0349813,-0.0377191,0.00883251,-38.4143,-11.5255,34.4752,0.117483,-0.758571,0.111834,-0.631079
106,3623.66,24,131.0,28.0,-0.704469,9.00649,-4.6963,-0.672739,8.83684,-4.87225,-0.0528876,0.0477485,-0.0958408,18.5158,-26.0191,30.4704,0.48617,-0.78769,-0.347902,-0.148822,33.3125,1.30203,9.57893,-0.468622,1.03874,9.64601,-0.179371,-0.0794057,0.203197,-0.0159925,-20.5977,-37.7683,13.0349,0.196691,-0.236759,-0.666173,-0.679317,33.9375,9.72484,0.182477,-2.0786,9.66933,0.287099,-1.64809,0.00876722,-0.00726315,0.0318935,-38.2983,-10.7575,34.9002,0.117279,-0.758576,0.111959,-0.631089
106,3623.67,24,131.0,28.0,-0.676843,9.0794,-5.00403,-0.733013,8.92781,-4.96299,-0.0691758,0.0478722,-0.11109,18.3831,-25.6395,30.8621,0.486189,-0.787433,-0.34835,-0.149069,33.3125,1.11136,9.54187,-0.471956,1.00883,9.63092,-0.133897,-0.0886095,0.134437,-0.0214282,-20.3381,-37.9068,13.0375,0.196422,-0.236321,-0.666031,-0.679686,33.9375,9.68742,0.182714,-2.07898,9.71432,0.256841,-1.66336,0.0173998,-0.00281336,0.0217174,-38.0268,-11.6731,34.6186,0.117569,-0.758493,0.112083,-0.631113
106,3623.68,24,131.0,28.0,-0.703932,8.89301,-4.65743,-0.732635,8.94294,-4.93282,-0.0377031,0.0848982,-0.092772,18.7633,-25.7843,30.206,0.48644,-0.787138,-0.348641,-0.149129,33.3125,1.23182,9.69342,-0.276661,1.00928,9.64593,-0.0734055,-0.0611537,0.144209,-0.016195,-20.4564,-38.2891,12.7568,0.195976,-0.235858,-0.665899,-0.680105,33.9375,9.796,0.107029,-2.19317,9.66931,0.226599,-1.64789,0.0586188,0.0382237,-0.0266291,-38.9346,-10.9841,34.6146,0.117539,-0.758386,0.111846,-0.631288
106,3623.69,24,131.0,28.0,-0.740121,9.12094,-4.65874,-0.763031,8.89786,-4.91759,-0.0586887,0.0698007,-0.111081,18.1371,-25.5026,30.3368,0.48646,-0.786865,-0.349122,-0.149381,33.3125,1.3089,9.58048,-0.236177,1.06944,9.63068,-0.0587003,-0.0703463,0.156389,-0.0120302,-20.8457,-37.6294,12.3274,0.195221,-0.235248,-0.665601,-0.680825,33.9375,9.71714,0.184725,-2.34882,9.71406,0.211391,-1.72376,0.0221811,-0.00771645,-0.0366086,-38.0377,-11.1576,34.618,0.117722,-0.758406,0.11175,-0.631249
106,3623.7,24,131.0,28.0,-0.599123,9.0036,-4.92564,-0.79266,9.00375,-4.9631,-0.133542,0.0940031,-0.125482,18.8832,-25.5424,30.3355,0.487055,-0.786221,-0.349665,-0.149562,33.3125,1.31427,9.88275,-0.0821781,1.05551,9.70603,0.0473908,-0.0686767,0.152149,-0.0751851,-20.5845,-38.0261,12.4724,0.194911,-0.234556,-0.665436,-0.681313,33.9375,9.76027,0.220851,-2.15565,9.71414,0.30216,-1.70891,0.0385628,0.0228232,-0.0150102,-38.6787,-10.8673,34.899,0.117609,-0.758362,0.111595,-0.63135
106,3623.71,24,131.0,28.0,-0.90144,9.00594,-4.93018,-0.838126,8.97387,-4.96298,-0.123976,0.0956912,-0.0709892,18.5091,-25.5224,30.4674,0.487345,-0.785803,-0.34999,-0.150051,33.3125,1.15723,9.88219,-0.239905,1.05672,9.81155,0.138366,-0.103094,0.0882844,-0.0126161,-20.6001,-37.7683,13.1759,0.194951,-0.234403,-0.665156,-0.681628,33.9375,9.83131,0.335567,-2.30999,9.69925,0.302194,-1.67856,-0.0224615,-0.0219213,0.00252757,-38.2944,-11.0156,34.7587,0.117736,-0.758394,0.111726,-0.631264
106,3623.72,24,131.0,28.0,-0.862846,8.9301,-4.89086,-0.85295,8.92874,-4.88737,-0.143175,0.134056,-0.0925626,18.8877,-25.791,30.2058,0.487949,-0.785188,-0.350355,-0.150454,33.3125,1.23307,9.73134,-0.238041,0.997314,9.9022,0.169213,-0.0839961,0.142274,-0.00576197,-20.0703,-38.4324,12.9013,0.194817,-0.234081,-0.665063,-0.681868,33.9375,9.64649,0.145946,-2.19494,9.69938,0.332481,-1.64839,0.00722594,-0.0269291,0.0127993,-38.2928,-11.0153,34.9006,0.117696,-0.758454,0.11178,-0.631189
106,3623.73,24,131.0,28.0,-0.896624,8.9314,-4.7759,-0.853583,8.86833,-4.90233,-0.146993,0.130289,-0.105268,18.5202,-26.0197,29.9455,0.488557,-0.784552,-0.350774,-0.150829,33.3125,1.18331,9.65356,-0.625899,1.05435,9.73653,-0.179203,-0.0590953,0.114491,-0.00749185,-19.7994,-38.6998,12.3407,0.194537,-0.233773,-0.665067,-0.682049,33.9375,9.76137,0.22053,-2.11705,9.69932,0.317337,-1.66348,0.0271487,-0.0163184,0.00822485,-38.5576,-10.4867,35.0408,0.117328,-0.758544,0.111744,-0.631157
106,3623.74,24,131.0,28.0,-0.858564,8.77969,-4.73633,-0.899302,8.82334,-4.91729,-0.158365,0.0911636,-0.0916389,18.5197,-26.1436,30.2087,0.489149,-0.783981,-0.351081,-0.151161,33.3125,1.23128,9.91908,-0.316125,1.03886,9.72156,-0.239603,-0.0103936,0.193217,-0.0731652,-20.4458,-38.6761,12.4771,0.194041,-0.232981,-0.665311,-0.682224,33.9375,9.68192,0.18432,-2.272,9.71433,0.28709,-1.66346,0.0107474,-0.0223145,0.00103581,-38.4201,-11.3973,34.1914,0.117641,-0.75854,0.111765,-0.631099
106,3623.75,24,131.0,28.0,-0.85776,8.70415,-4.69758,-0.929325,8.73304,-4.81136,-0.129831,0.0980968,-0.070988,18.3931,-26.1367,30.4714,0.489447,-0.783539,-0.351441,-0.151646,33.3125,1.18988,9.54215,-0.393092,1.05701,9.85683,0.138495,-0.122463,0.226344,-0.062452,-20.5755,-38.155,12.0502,0.193477,-0.232017,-0.664969,-0.683045,33.9375,9.68302,0.183999,-2.2334,9.66919,0.256812,-1.67826,0.0494123,-0.00941276,-0.0286755,-38.5588,-10.3575,35.1825,0.117222,-0.758654,0.111549,-0.631078
106,3623.76,24,131.0,28.0,-0.898757,8.62789,-4.77491,-0.914893,8.62725,-4.78094,-0.124078,0.10669,-0.036376,18.6402,-26.2737,30.8654,0.489654,-0.783179,-0.351697,-0.15225,33.3125,1.09898,9.61433,-0.898346,1.08378,9.67616,-0.224893,-0.0804021,0.169789,-0.0594597,-20.4478,-38.547,12.4763,0.193161,-0.23133,-0.664979,-0.683358,33.9375,9.68192,0.18432,-2.272,9.71435,0.37784,-1.66375,0.0637587,-0.0139531,-0.0255294,-38.6694,-11.3832,34.7578,0.117336,-0.758691,0.111251,-0.631065
106,3623.77,24,131.0,28.0,-0.75054,8.58811,-4.84953,-0.856125,8.55121,-4.88654,-0.131165,0.077336,-0.0349093,18.5141,-25.8949,30.4697,0.489938,-0.782873,-0.351789,-0.152695,33.3125,0.866561,9.5013,-1.01835,0.930184,9.58655,-0.662492,-0.0234883,0.113644,-0.0378113,-20.7051,-38.4084,12.3328,0.192637,-0.230742,-0.665198,-0.683492,33.9375,9.82981,0.259951,-2.34813,9.69925,0.302194,-1.67856,0.0295708,-0.0197461,0.000321696,-38.8104,-10.6028,35.0401,0.117058,-0.758785,0.1112,-0.631014
106,3623.78,24,131.0,28.0,-0.709539,8.47501,-4.73307,-0.901973,8.47603,-4.88632,-0.0922002,0.0666463,-0.0230472,18.7672,-25.9088,29.9443,0.490379,-0.78262,-0.351692,-0.152801,33.3125,1.03807,9.35462,-0.356512,0.705074,9.51136,-0.495113,-0.0559452,0.105109,-0.0611034,-20.3268,-38.0356,12.4743,0.192487,-0.230103,-0.665405,-0.683548,33.9375,9.68251,0.298226,-2.2727,9.71414,0.30216,-1.70891,0.0117525,-0.0160389,-0.0154452,-38.8022,-10.9895,35.0406,0.117096,-0.758834,0.111151,-0.630956
106,3623.79,24,131.0,28.0,-0.634764,8.54997,-4.77069,-0.887157,8.43063,-4.87114,-0.106941,0.0718667,-0.0364407,18.2631,-25.6334,30.3374,0.49045,-0.782417,-0.351854,-0.153235,33.3125,1.23809,9.46906,-0.0434926,0.855944,9.2993,-0.194387,-0.0696492,0.154604,-0.0750875,-20.1676,-38.8141,11.3518,0.192006,-0.229297,-0.665207,-0.684147,33.9375,9.64359,0.222847,-2.31122,9.71398,0.377729,-1.75456,0.0450529,-0.0125075,-0.028716,-38.5576,-11.0046,34.0486,0.117238,-0.758877,0.110903,-0.630922
106,3623.8,24,131.0,28.0,-0.826653,8.51282,-4.85042,-0.857016,8.43041,-4.87117,-0.0961261,0.0595271,-0.0659437,18.635,-25.4053,30.0728,0.490744,-0.78215,-0.351979,-0.153367,33.3125,1.43796,9.95977,0.22958,1.08671,9.56966,0.379284,0.0170579,0.128345,-0.135682,-20.1855,-38.5564,12.1962,0.192154,-0.228743,-0.665399,-0.684103,33.9375,9.79989,0.219971,-2.07806,9.68424,0.36269,-1.67868,0.0190008,-0.0285515,-0.0210576,-38.7991,-10.9888,35.3242,0.117205,-0.758982,0.110777,-0.630823
106,3623.81,24,131.0,28.0,-0.860164,8.55205,-4.73559,-0.916663,8.50636,-4.87127,-0.10036,0.0878681,-0.0065923,18.8905,-25.9153,30.0753,0.491145,-0.781894,-0.351877,-0.153625,33.3125,1.16022,10.1463,-0.163267,1.13351,9.93193,0.274265,0.0499866,0.20959,-0.170661,-20.451,-38.0307,12.1914,0.192001,-0.227772,-0.665808,-0.684072,33.9375,9.61116,0.335705,-2.15789,9.63957,0.408167,-1.58778,0.0225446,0.00219432,-0.0215477,-38.5541,-10.8743,34.6158,0.117236,-0.758974,0.11058,-0.630861
106,3623.82,24,131.0,28.0,-0.938417,8.55196,-4.81374,-0.931104,8.52162,-4.81089,-0.109901,0.102973,0.00129106,18.4008,-26.1377,29.5527,0.491612,-0.781558,-0.351817,-0.15398,33.3125,0.649662,10.0692,-0.675639,0.860921,10.0539,-0.162001,-0.00264784,0.239688,-0.165266,-20.4444,-38.1596,11.9101,0.191584,-0.22642,-0.666183,-0.684273,33.9375,9.64268,0.261137,-2.35006,9.68432,0.423209,-1.66374,0.0397993,0.00961353,-0.0293101,-38.3185,-9.72613,35.0408,0.116593,-0.759076,0.110271,-0.630912
106,3623.83,24,131.0,28.0,-0.824245,8.47555,-4.77328,-0.931604,8.55174,-4.90156,-0.0634586,0.0503329,0.0035407,18.4003,-26.2616,29.816,0.491866,-0.781441,-0.351668,-0.154104,33.3125,0.621741,10.0339,-0.327542,0.574596,10.0547,-0.250946,-0.0426575,0.223948,-0.16193,-20.0515,-39.2065,12.4828,0.191549,-0.225089,-0.666714,-0.684205,33.9375,9.64909,0.221241,-2.11821,9.66952,0.317405,-1.60278,0.0272806,0.0159669,-0.0103777,-38.2909,-10.8854,35.3259,0.116495,-0.759031,0.110145,-0.631007
106,3623.84,24,131.0,28.0,-0.934943,8.66645,-4.7371,-0.992263,8.56723,-4.96194,-0.0871188,0.0659966,0.0104221,18.7683,-25.9089,29.8131,0.492247,-0.781266,-0.351457,-0.154253,33.3125,0.893964,9.92145,-0.128639,0.515942,10.0091,0.0515276,-0.0648365,0.166719,-0.136162,-19.7901,-38.6995,11.7768,0.191547,-0.224001,-0.666848,-0.684431,33.9375,9.68671,0.258972,-2.11805,9.68482,0.393107,-1.54256,0.0107147,0.00435124,-0.0121058,-38.4303,-10.6226,34.7578,0.116428,-0.759015,0.110017,-0.63106
106,3623.85,24,131.0,28.0,-0.979418,8.66507,-4.93019,-0.993025,8.47662,-4.96174,-0.0100785,0.0539043,0.0678586,18.2754,-26.3788,30.0794,0.492067,-0.781453,-0.351173,-0.154528,33.3125,1.05318,9.88488,0.10669,0.697411,9.96312,0.261875,-0.103812,0.159524,-0.112754,-20.4163,-38.9334,10.9277,0.191221,-0.222979,-0.666389,-0.685303,33.9375,9.68781,0.258651,-2.07945,9.72951,0.393006,-1.63361,0.00966487,0.00009047,-0.0326297,-38.2854,-11.1431,35.3262,0.116585,-0.75901,0.109848,-0.631067
106,3623.86,24,131.0,28.0,-0.978348,8.62747,-4.89156,-1.06876,8.47712,-5.00696,-0.039032,0.0456369,0.0296117,18.4009,-26.3856,29.9479,0.492158,-0.781465,-0.350975,-0.154626,33.3125,1.08215,9.88268,-0.202546,0.892655,9.90229,0.275633,-0.0862605,0.128008,-0.0959561,-20.5485,-39.3161,11.493,0.191081,-0.222268,-0.666081,-0.685872,33.9375,9.68082,0.184641,-2.3106,9.68446,0.453496,-1.63357,0.052343,-0.0241547,-0.0295938,-38.1717,-10.6347,35.0424,0.11636,-0.759141,0.109513,-0.631009
106,3623.87,24,131.0,28.0,-0.986371,8.62545,-5.1226,-1.14335,8.55319,-4.99195,0.0291363,0.0609809,0.0569008,18.0289,-26.3659,29.8173,0.491857,-0.781671,-0.350857,-0.154811,33.3125,0.892421,9.77058,-0.166898,0.937131,9.857,0.214782,-0.075364,0.132307,-0.068821,-20.4233,-38.9336,11.3507,0.190791,-0.221641,-0.6658,-0.686428,33.9375,9.56854,0.185353,-2.31176,9.65406,0.317272,-1.70864,0.0276661,-0.0500451,-0.0259628,-38.808,-10.8613,34.7567,0.116371,-0.75931,0.10939,-0.630825
106,3623.88,24,131.0,28.0,-1.0132,8.66637,-4.81524,-1.11257,8.58321,-4.94675,-0.0305312,0.0400033,0.0621291,18.6385,-25.9016,30.4694,0.49176,-0.781759,-0.350667,-0.155105,33.3125,0.772359,9.76964,-0.362675,0.816164,9.8423,0.124794,-0.0666383,0.124932,-0.102821,-20.0549,-37.9156,11.4885,0.190745,-0.220917,-0.665742,-0.686731,33.9375,9.75787,0.183525,-2.23263,9.69914,0.362656,-1.70903,0.042921,-0.000864075,-0.0120699,-38.4182,-11.2674,34.6167,0.116532,-0.75929,0.109226,-0.630847
106,3623.89,24,131.0,28.0,-1.00678,8.63011,-4.62259,-1.06673,8.59804,-4.88642,0.00962073,0.0603052,0.0750073,18.2671,-26.0058,30.4708,0.491364,-0.781966,-0.350568,-0.155544,33.3125,0.8463,9.76888,-0.438774,0.725358,9.79729,0.0798737,-0.0992289,0.127318,-0.0679695,-20.1782,-38.4271,11.6315,0.190651,-0.220249,-0.6656,-0.687109,33.9375,9.79798,0.486715,-2.19551,9.71429,0.362697,-1.67884,0.0471276,-0.0301262,0.000270557,-38.6912,-10.3521,34.7566,0.116143,-0.759434,0.1091,-0.630768
106,3623.9,24,131.0,28.0,-1.08476,8.4786,-4.66173,-1.09701,8.49263,-4.79556,0.0628459,0.0702386,0.0676671,18.2764,-26.1311,29.5529,0.491182,-0.782147,-0.350391,-0.155602,33.3125,0.732702,9.61889,-0.401624,0.649498,9.73715,0.0348191,-0.0287834,0.156449,-0.0801113,-20.0408,-38.6898,11.3519,0.19036,-0.219449,-0.665729,-0.687321,33.9375,9.64889,0.183272,-2.11797,9.66918,0.438293,-1.69398,0.0652815,-0.0450157,-0.036845,-38.044,-10.641,35.0428,0.115905,-0.759643,0.10873,-0.630623
106,3623.91,24,131.0,28.0,-1.04296,8.47931,-4.54565,-1.08131,8.52276,-4.75034,0.0226163,0.0641907,0.0861652,18.6451,-26.1504,30.0772,0.491097,-0.782287,-0.35011,-0.155801,33.3125,0.887348,9.58127,-0.321258,0.739572,9.7521,-0.0110189,-0.0712159,0.0623478,-0.0570591,-20.2937,-38.6802,11.0681,0.190177,-0.21897,-0.66549,-0.687756,33.9375,9.61516,0.258483,-2.00302,9.72931,0.377825,-1.67897,0.00952506,-0.0314994,-0.0242612,-38.5662,-10.2296,34.7569,0.115695,-0.759788,0.10862,-0.630506
106,3623.92,24,131.0,28.0,-1.04537,8.70594,-4.66191,-1.15666,8.47804,-4.70486,-0.0246222,0.0523155,0.0500698,18.2704,-26.2542,30.4723,0.490976,-0.782289,-0.350112,-0.156166,33.3125,0.968252,9.61973,-0.165034,0.724321,9.67661,0.0341917,-0.0594646,0.114702,-0.0510606,-19.908,-38.9527,11.3544,0.190025,-0.21844,-0.665492,-0.687964,33.9375,9.6474,0.107656,-2.15611,9.71443,0.438359,-1.64881,-0.00326957,-0.00653504,-0.0130324,-38.6807,-10.4793,35.4659,0.115539,-0.759836,0.108521,-0.630494
106,3623.93,24,131.0,28.0,-1.08022,8.55548,-4.54646,-1.20061,8.55394,-4.62948,-0.00720145,0.07093,0.0768017,18.7684,-26.1569,30.2083,0.491055,-0.782264,-0.349942,-0.156421,33.3125,0.854008,9.65774,-0.167227,0.754853,9.67644,0.10957,-0.0761674,0.133162,-0.0703541,-20.4295,-38.6756,11.4902,0.18985,-0.217769,-0.6654,-0.688315,33.9375,9.68561,0.259294,-2.15666,9.7144,0.317359,-1.64842,0.0200088,-0.0251561,-0.00526837,-38.1744,-10.5058,35.0422,0.115346,-0.759929,0.108465,-0.630427
106,3623.94,24,131.0,28.0,-0.962302,8.63149,-4.42949,-1.15489,8.58384,-4.59939,-0.0364324,0.0607319,0.0894603,18.2849,-26.9999,29.9519,0.491332,-0.782126,-0.349723,-0.156731,33.3125,1.03429,9.65481,-0.51244,0.754403,9.67654,0.0340099,-0.0528256,0.165298,-0.0404953,-20.1774,-38.1689,11.348,0.189437,-0.217102,-0.665424,-0.688616,33.9375,9.72575,0.144187,-2.03976,9.71427,0.287072,-1.6786,0.0295654,-0.0175971,-0.0248658,-38.2901,-11.1442,34.9007,0.115523,-0.759961,0.108347,-0.630377
106,3623.95,24,131.0,28.0,-0.962036,8.66943,-4.42961,-1.15477,8.5235,-4.52375,-0.0421974,0.0219638,0.112366,18.271,-26.1303,30.2091,0.491411,-0.782138,-0.349405,-0.157136,33.3125,1.00179,9.61857,-0.319306,0.724602,9.70677,0.0493902,-0.0427259,0.165366,-0.0770682,-19.6507,-39.0913,11.4979,0.189341,-0.216386,-0.665697,-0.688604,33.9375,9.72374,0.182798,-2.1172,9.69925,0.317319,-1.67861,0.044568,-0.0546679,-0.022023,-38.5483,-11.0025,34.8996,0.115546,-0.760129,0.108188,-0.630198
106,3623.96,24,131.0,28.0,-0.962565,8.40419,-4.39024,-1.09487,8.49285,-4.53885,0.0232831,-0.0214077,0.0750547,17.8923,-25.8617,30.4707,0.491058,-0.782356,-0.349302,-0.157383,33.3125,0.815993,9.69551,-0.168038,0.694418,9.67663,0.0645974,-0.0310557,0.147285,-0.0742142,-19.6593,-38.8333,11.7784,0.18939,-0.215803,-0.666032,-0.688449,33.9375,9.60946,0.22212,-2.1958,9.75914,0.287026,-1.72424,0.0522831,-0.0286943,-0.000490184,-38.4221,-10.4913,35.7505,0.115105,-0.760272,0.108065,-0.630126
