subject_id,timestamp_s,activity_id,heart_rate_bpm,hand_temp_c,hand_acc16_x_ms2,hand_acc16_y_ms2,hand_acc16_z_ms2,hand_acc6_x_ms2,hand_acc6_y_ms2,hand_acc6_z_ms2,hand_gyro_x_rads,hand_gyro_y_rads,hand_gyro_z_rads,hand_mag_x_ut,hand_mag_y_ut,hand_mag_z_ut,hand_orientation_w,hand_orientation_x,hand_orientation_y,hand_orientation_z,chest_temp_c,chest_acc16_x_ms2,chest_acc16_y_ms2,chest_acc16_z_ms2,chest_acc6_x_ms2,chest_acc6_y_ms2,chest_acc6_z_ms2,chest_gyro_x_rads,chest_gyro_y_rads,chest_gyro_z_rads,chest_mag_x_ut,chest_mag_y_ut,chest_mag_z_ut,chest_orientation_w,chest_orientation_x,chest_orientation_y,chest_orientation_z,ankle_temp_c,ankle_acc16_x_ms2,ankle_acc16_y_ms2,ankle_acc16_z_ms2,ankle_acc6_x_ms2,ankle_acc6_y_ms2,ankle_acc6_z_ms2,ankle_gyro_x_rads,ankle_gyro_y_rads,ankle_gyro_z_rads,ankle_mag_x_ut,ankle_mag_y_ut,ankle_mag_z_ut,ankle_orientation_w,ankle_orientation_x,ankle_orientation_y,ankle_orientation_z
107,3104.99,5,117.0,32.5,-9.17441,2.56753,1.81838,-9.01648,2.77194,1.99022,-0.037226,-0.0228738,0.030766,42.8148,-4.26368,-13.0173,0.502126,-0.573817,-0.252603,0.595647,36.8125,0.756147,9.69071,-0.904805,0.616349,9.72282,-0.463738,0.0272884,0.00717012,-0.00336194,1.43183,-41.1631,15.4635,0.53986,-0.595149,-0.416667,-0.425133,32.0,9.55329,-0.836908,-2.65288,9.54611,-0.711991,-2.31017,0.0173004,0.0467904,0.0245455,-24.9082,10.2446,5.13824,0.467117,0.558671,0.553191,0.40456
107,3105.0,5,117.0,32.5,-9.17361,2.49198,1.85713,-9.03206,2.74182,1.9601,-0.0135197,-0.0123114,0.00467745,42.4484,-4.49258,-13.4089,0.502417,-0.573553,-0.252215,0.595821,36.8125,0.687924,9.69276,-0.635001,0.570577,9.67773,-0.524043,-0.0152576,0.013326,0.00990164,1.43169,-40.3885,14.7541,0.539809,-0.595133,-0.416614,-0.425271,32.0,9.55259,-0.76065,-2.69195,9.50105,-0.681751,-2.31003,0.0255695,-0.0115034,-0.00197475,-24.3794,9.44622,5.28286,0.4675,0.558287,0.553159,0.404691
107,3105.01,5,117.0,32.5,-9.17227,2.68168,1.85651,-9.03383,2.63602,1.85463,-0.01436,-0.0312051,0.0174261,42.3229,-4.23786,-13.6726,0.502592,-0.573295,-0.251526,0.596212,36.8125,0.722607,9.69186,-0.750533,0.556724,9.72283,-0.372703,-0.024847,0.0311889,-0.0182001,1.68909,-41.3017,15.6071,0.539869,-0.594926,-0.416705,-0.425395,32.0,9.59162,-0.875435,-2.61365,9.57591,-0.666684,-2.37101,-0.0422065,-0.0261453,-0.00229043,-24.0098,10.0715,5.28343,0.46748,0.558219,0.553204,0.404746
107,3105.02,5,117.0,32.5,-9.10365,2.64148,1.66524,-9.07891,2.65145,1.85464,0.0161544,0.00494077,0.00478634,42.9335,-3.77372,-13.1518,0.502207,-0.573683,-0.251916,0.595998,36.8125,0.645533,9.8048,-0.791017,0.55655,9.73798,-0.417995,0.0240148,0.0244688,-0.00708096,1.70824,-41.9466,15.0469,0.539952,-0.594806,-0.41689,-0.425276,32.0,9.62654,-0.722834,-2.73001,9.57591,-0.666684,-2.37101,0.0343353,-0.00154135,-0.0270659,-24.7707,9.85197,5.28101,0.467901,0.557658,0.553324,0.404868
107,3105.03,5,117.0,32.5,-9.10097,2.64215,1.74225,-9.06282,2.77215,1.85436,0.00984558,-0.00872867,-0.00158652,42.9314,-4.02136,-12.4941,0.501468,-0.574356,-0.252667,0.595655,36.8125,0.607119,9.69196,-0.791346,0.570853,9.69278,-0.493776,-0.0174397,0.0210586,-0.00522487,1.30411,-40.771,15.0374,0.539766,-0.594793,-0.41688,-0.425542,32.0,9.55947,-0.496476,-2.50057,9.59113,-0.6515,-2.32574,-0.00111536,-0.04488,-0.0196882,-24.8794,8.95618,5.28167,0.468154,0.557348,0.55306,0.405364
107,3105.04,5,117.0,32.5,-9.13448,2.68139,1.85708,-9.07689,2.81763,1.92978,0.00808171,-0.00452866,0.000197225,42.8125,-4.01546,-13.15,0.501354,-0.574496,-0.252732,0.595589,36.8125,0.75729,9.69097,-0.866064,0.616187,9.76821,-0.539168,0.00165623,-0.00250054,0.0219028,0.92049,-41.4021,15.4613,0.539178,-0.595092,-0.416705,-0.42604,32.0,9.63585,-0.839631,-2.38189,9.57617,-0.636359,-2.31057,-0.0117923,-0.00844231,0.00662075,-24.2637,10.0846,5.42436,0.468076,0.557419,0.553049,0.40537
107,3105.05,5,117.0,32.5,-9.17575,2.56719,1.77987,-9.09259,2.78749,1.88456,-0.0216678,0.0154669,0.0163305,42.6815,-3.76,-12.7576,0.501156,-0.574849,-0.253307,0.59517,36.8125,0.678873,9.72834,-0.945048,0.631858,9.76802,-0.433475,-0.00731615,0.0135724,0.000199594,1.42077,-40.1306,15.1756,0.539083,-0.595079,-0.416685,-0.426197,32.0,9.51906,-0.647471,-2.57722,9.60609,-0.651515,-2.34095,-0.0264105,-0.0127774,0.0081171,-23.8669,9.42108,5.42652,0.46788,0.557603,0.553046,0.405348
107,3105.06,5,117.0,32.5,-9.2934,2.71848,1.62365,-9.09284,2.78747,1.85436,0.0206109,0.0212745,0.0179058,42.5577,-3.62947,-13.0206,0.500981,-0.575163,-0.253438,0.594958,36.8125,0.719574,9.8417,-0.867237,0.646522,9.72273,-0.448808,-0.00350934,0.00453507,-0.0332918,1.70075,-41.3014,14.9022,0.539406,-0.594909,-0.416778,-0.425935,32.0,9.52216,-0.686403,-2.46118,9.59126,-0.636338,-2.29552,-0.058669,0.0429249,0.0172197,-24.1293,9.69124,5.28346,0.468005,0.557541,0.552775,0.40566
107,3105.07,5,117.0,32.5,-9.10285,2.7553,1.66486,-9.1231,2.80276,1.82415,-0.0292428,0.0320735,0.0468492,42.6899,-4.133,-13.1491,0.501098,-0.575302,-0.253308,0.594781,36.8125,0.764153,9.69252,-0.633619,0.662307,9.78298,-0.388278,-0.0366349,-0.00557123,0.00970429,1.43243,-40.1303,14.4706,0.539572,-0.594839,-0.416602,-0.425995,32.0,9.55719,-0.723966,-2.53777,9.54632,-0.63631,-2.26501,0.0251082,-0.00147276,0.0209625,-24.2594,9.95605,5.56636,0.467904,0.557736,0.552761,0.405526
107,3105.08,5,117.0,32.5,-9.28912,2.75743,1.73904,-9.16794,2.77295,1.89977,-0.0326429,0.0302657,0.0141581,42.5611,-4.12577,-12.6239,0.500864,-0.575646,-0.253767,0.594449,36.8125,0.720419,9.729,-0.828135,0.647541,9.79807,-0.35792,-0.0354892,0.0401188,0.0192264,1.31823,-41.5452,14.9009,0.53952,-0.594725,-0.416516,-0.426304,32.0,9.51116,-0.683191,-2.84721,9.5313,-0.621189,-2.26498,0.022218,0.0409077,0.0229278,-23.8758,10.0665,5.85124,0.467441,0.558361,0.552556,0.405481
107,3105.09,5,117.0,32.5,-9.25748,2.64197,1.58596,-9.16794,2.75786,1.9149,-0.0167767,0.0107428,0.0237623,42.6959,-4.25778,-13.6733,0.501212,-0.575368,-0.252983,0.594759,36.8125,0.725293,9.84299,-0.673533,0.647265,9.78302,-0.388187,-0.0197875,0.0346062,-0.0235708,1.55745,-40.6515,15.1795,0.539585,-0.594554,-0.416587,-0.42639,32.0,9.58911,-0.722597,-2.7304,9.48629,-0.65143,-2.2495,-0.00681181,-0.0141104,0.0239109,-24.7715,10.1108,5.70621,0.467267,0.558619,0.552506,0.405394
107,3105.1,5,117.0,32.5,-9.17521,2.64307,1.77962,-9.16921,2.6672,1.8547,0.00483704,-0.0151629,0.0407558,43.0568,-3.78021,-13.0207,0.50106,-0.575642,-0.253153,0.59455,36.8125,0.844112,9.80602,-0.516377,0.632488,9.76788,-0.327691,-0.0256381,0.00761614,0.00774826,1.29625,-40.2548,15.0344,0.53948,-0.594524,-0.416488,-0.426662,32.0,9.55239,-0.798618,-2.69171,9.54605,-0.696884,-2.32535,0.0132547,0.00132598,0.0154434,-24.3665,9.0606,5.70885,0.467134,0.558779,0.552665,0.405109
107,3105.11,5,117.0,32.5,-9.29046,2.75709,1.70054,-9.16908,2.69739,1.83953,-0.00495043,-0.0114573,0.0298849,42.9403,-4.27047,-13.1488,0.501042,-0.575708,-0.252919,0.5946,36.8125,0.688123,9.76806,-0.635242,0.64735,9.76788,-0.358006,-0.0649096,0.0171072,-0.0156683,1.56051,-40.3933,14.755,0.53979,-0.594244,-0.416407,-0.426739,32.0,9.63114,-0.686151,-2.57583,9.56107,-0.696881,-2.32543,0.0473407,0.00243638,0.00609066,-24.3918,9.9614,5.14039,0.467764,0.558178,0.552757,0.405085
107,3105.12,5,117.0,32.5,-9.29526,2.45291,1.62452,-9.124,2.65179,1.86979,0.0182226,0.00467736,0.0240236,42.6781,-3.51163,-12.7591,0.500801,-0.576087,-0.253424,0.594221,36.8125,0.840681,9.80524,-0.632599,0.647338,9.73766,-0.327869,-0.0367032,0.0276834,-0.00970584,1.42666,-40.5177,15.1778,0.539788,-0.59409,-0.416383,-0.426979,32.0,9.70088,-0.609081,-2.76854,9.57628,-0.696822,-2.28011,0.00670555,0.0118448,-0.00889508,-24.3762,9.4469,5.56653,0.467712,0.558187,0.552786,0.405094
107,3105.13,5,117.0,32.5,-9.21113,2.71957,1.81731,-9.12412,2.65177,1.85469,0.0214688,0.0122225,0.0226384,42.8119,-3.89142,-13.282,0.500701,-0.576222,-0.253104,0.59431,36.8125,0.833818,9.80369,-0.865044,0.602135,9.76801,-0.372845,-0.00103405,0.0399524,-0.00532234,2.06608,-40.5416,15.4644,0.540057,-0.593916,-0.416457,-0.426808,32.0,9.51576,-0.646507,-2.69303,9.60641,-0.606047,-2.26542,-0.00118856,0.00553544,-0.0168524,-24.2602,9.69693,4.99932,0.468228,0.557568,0.552747,0.405403
107,3105.14,5,117.0,32.5,-9.14411,2.6411,1.58766,-9.12375,2.60655,1.94539,0.00757574,0.0315969,0.0364519,42.9408,-4.3945,-13.0168,0.500675,-0.576398,-0.252982,0.594214,36.8125,0.604832,9.69144,-0.868828,0.602243,9.81333,-0.40294,-0.00909901,-0.0143122,0.00041402,1.29049,-40.6423,15.7416,0.539782,-0.593985,-0.416406,-0.42711,32.0,9.48014,-0.722849,-2.61574,9.57631,-0.590947,-2.28045,-0.0224562,-0.0233481,0.0198445,-23.729,9.15797,5.85281,0.467494,0.558269,0.553002,0.404937
107,3105.15,5,117.0,32.5,-9.21247,2.52988,1.81793,-9.13907,2.62172,1.90007,0.028612,0.00619135,0.0417557,42.0676,-4.2237,-12.8848,0.500649,-0.576531,-0.252604,0.594268,36.8125,0.802367,9.73005,-0.633049,0.63214,9.79819,-0.418277,-0.00144977,0.0317324,-0.00446293,1.43722,-40.9047,14.8981,0.539749,-0.593913,-0.416463,-0.427198,32.0,9.51477,-0.83635,-2.69186,9.54607,-0.606135,-2.32564,0.0140115,0.0516395,0.0119785,-24.3825,9.44554,4.99919,0.468293,0.557566,0.552714,0.405375
107,3105.16,5,117.0,32.5,-9.21515,2.71857,1.70179,-9.1834,2.68249,1.94529,-0.00640195,0.0229514,0.0351547,42.5627,-4.00203,-13.0184,0.500657,-0.576678,-0.252565,0.594135,36.8125,0.801722,9.91806,-0.672393,0.64744,9.76786,-0.342894,-0.0219893,0.0377037,-0.0160794,1.43635,-40.3884,14.4721,0.539859,-0.593708,-0.416533,-0.427275,32.0,9.48084,-0.799108,-2.57667,9.53149,-0.606008,-2.21962,0.0339499,0.0623037,0.012131,-23.495,9.78793,5.14374,0.468644,0.557299,0.552603,0.405488
107,3105.17,5,84.0,32.5,-9.21595,2.60475,1.70217,-9.13717,2.74262,2.00551,-0.0219928,-0.00960075,0.0472698,42.6888,-4.13286,-13.0179,0.500868,-0.576671,-0.252484,0.593998,36.8125,0.725194,9.80534,-0.673413,0.662841,9.76774,-0.282537,-0.0318705,-0.00611833,-0.0360081,1.17676,-40.2498,14.4695,0.53992,-0.593632,-0.416462,-0.427373,32.0,9.51996,-0.68576,-2.53839,9.57635,-0.681679,-2.26502,0.0222716,0.0172027,0.0108896,-24.7552,9.33747,5.70716,0.46855,0.557428,0.552706,0.40528
107,3105.18,5,84.0,32.5,-9.29099,2.49185,1.73991,-9.09297,2.66675,1.96033,-0.00278772,0.0680296,0.0299723,42.3108,-4.23624,-12.2291,0.500372,-0.577354,-0.253172,0.593459,36.8125,0.839438,9.76733,-0.671219,0.692384,9.7678,-0.373391,0.0129588,0.034413,-0.0471357,1.30804,-41.0291,15.0389,0.539803,-0.593586,-0.416617,-0.427433,32.0,9.59461,-0.724203,-2.53738,9.5915,-0.651388,-2.23493,-0.00620536,0.00602213,0.00992206,-24.0032,9.68453,5.14208,0.468808,0.557198,0.552622,0.405412
107,3105.19,5,84.0,32.5,-9.17388,2.6434,1.81813,-9.13831,2.66706,1.94527,-0.015325,0.0159544,0.0297987,42.5583,-4.00144,-12.4935,0.50023,-0.577654,-0.253628,0.593092,36.8125,0.725293,9.84299,-0.673533,0.723126,9.84316,-0.343132,-0.0296824,0.040126,0.0194351,1.68773,-40.1399,14.6135,0.540012,-0.593418,-0.416531,-0.427485,32.0,9.67057,-0.724999,-2.49801,9.54624,-0.696829,-2.27995,-0.0460011,-0.0143069,0.0261692,-24.1239,9.43348,5.28377,0.468809,0.557287,0.552458,0.405512
107,3105.2,5,84.0,32.5,-9.25159,2.52983,1.77886,-9.10665,2.75753,2.03565,-0.020735,0.0533367,0.02425,42.8081,-4.01486,-12.6251,0.50025,-0.577903,-0.254088,0.592636,36.8125,0.878497,9.69216,-0.631547,0.722286,9.76778,-0.403796,0.0163585,0.0226795,-0.00144428,1.57143,-40.6512,14.3335,0.540159,-0.593368,-0.416572,-0.42733,32.0,9.59182,-0.837467,-2.61389,9.54611,-0.696866,-2.31022,-0.0202642,0.0202139,-0.00101019,-24.2575,9.56805,4.99948,0.469298,0.556794,0.552305,0.405831
107,3105.21,5,84.0,32.5,-9.24812,2.64432,1.8555,-9.06283,2.66653,1.9603,-0.0150597,0.0205616,0.0149101,42.8169,-4.01605,-13.675,0.500449,-0.577656,-0.253205,0.593087,36.8125,0.839438,9.76733,-0.671219,0.706969,9.75276,-0.433973,-0.0140501,0.0358513,-0.00639816,1.80882,-40.403,15.3208,0.540297,-0.593274,-0.416546,-0.427311,32.0,9.55318,-0.646744,-2.69265,9.57617,-0.651484,-2.31052,0.0329108,0.0016344,0.0328283,-25.018,9.47807,5.28058,0.46975,0.556512,0.552157,0.405897
107,3105.22,5,84.0,32.5,-9.17655,2.64273,1.74112,-9.12286,2.69717,1.96029,-0.0526678,0.0743583,-0.0114191,42.3168,-4.11309,-13.1484,0.50062,-0.577537,-0.253102,0.593102,36.8125,0.759478,9.65383,-0.788462,0.64717,9.76793,-0.38823,-0.0716169,0.0566972,0.00839832,1.31969,-41.0288,14.3339,0.540404,-0.592995,-0.416463,-0.427643,32.0,9.40729,-0.760986,-2.53908,9.5612,-0.696844,-2.29516,0.040759,-0.0689338,-0.00247336,-24.3813,9.83423,5.84973,0.469045,0.557167,0.552477,0.405378
107,3105.23,5,84.0,32.5,-9.09562,2.64349,1.89627,-9.09234,2.6819,2.0207,-0.0194991,0.0561474,0.00430254,42.8154,-4.38772,-12.8853,0.500694,-0.577593,-0.253234,0.592928,36.8125,0.759578,9.69148,-0.788583,0.69284,9.78281,-0.3129,0.0125243,0.0236733,-0.00912527,1.04991,-40.3741,14.4693,0.540112,-0.593109,-0.416441,-0.427875,32.0,9.55408,-0.685034,-2.65381,9.54601,-0.591028,-2.34083,0.00339708,-0.0115953,-0.00833587,-23.854,9.03546,5.85251,0.468356,0.557677,0.552961,0.404813
107,3105.24,5,84.0,32.5,-9.13662,2.56723,1.81894,-9.13793,2.69728,1.96031,-0.02071,0.0498233,-0.0117938,42.5654,-3.87844,-13.5441,0.500716,-0.577486,-0.252725,0.593231,36.8125,0.795405,9.69085,-0.865373,0.677528,9.78291,-0.358145,-0.0176435,0.0610032,0.0044427,0.140834,-40.4701,15.0276,0.539016,-0.593382,-0.416347,-0.428968,32.0,9.55459,-0.799261,-2.61451,9.56109,-0.621256,-2.32567,0.0339865,0.0110408,0.00613621,-24.5145,10.0984,5.84896,0.468023,0.558048,0.552977,0.404665
107,3105.25,5,84.0,32.5,-9.24892,2.5305,1.85587,-9.1525,2.66726,2.05099,0.0318953,0.0539355,0.0124227,42.0569,-3.60248,-12.6261,0.500542,-0.577835,-0.25313,0.592866,36.8125,0.912136,9.72866,-0.78594,0.692558,9.75265,-0.328098,-0.0149589,0.0193727,-0.00305626,0.928947,-40.8855,14.4714,0.538858,-0.593411,-0.416258,-0.429214,32.0,9.44082,-0.874165,-2.6538,9.56089,-0.681812,-2.37088,0.00945838,-0.0071168,-0.0240327,-24.2497,9.56975,5.70867,0.467677,0.558242,0.553184,0.404514
107,3105.26,5,84.0,32.5,-9.32075,2.49416,1.97038,-9.1525,2.66726,2.05099,-0.0327779,0.0359801,-0.0207543,42.0637,-4.09922,-12.6231,0.500542,-0.577823,-0.253439,0.592745,36.8125,0.838394,9.80472,-0.710081,0.64744,9.76786,-0.342894,-0.0291598,0.0336291,-0.017758,1.68713,-41.1726,15.6063,0.539079,-0.593191,-0.416294,-0.429206,32.0,9.59061,-0.646981,-2.69226,9.56127,-0.666575,-2.28012,0.00619716,-0.0318406,0.00644867,-24.768,9.72309,5.28117,0.468023,0.557905,0.553152,0.404623
107,3105.27,5,84.0,32.5,-9.24544,2.64499,1.93251,-9.15288,2.62196,2.05109,-0.0154215,0.0191584,-0.00519426,42.4417,-4.24376,-13.0167,0.500743,-0.577614,-0.253229,0.592869,36.8125,0.876409,9.76695,-0.709269,0.707521,9.78286,-0.373438,-0.0187676,0.0675955,0.00293634,1.55891,-40.1351,14.6125,0.53923,-0.592957,-0.41637,-0.429265,32.0,9.66676,-0.609808,-2.65312,9.51611,-0.757353,-2.29473,-0.00777811,-0.0130288,-0.0264967,-24.0008,9.944,5.85094,0.467305,0.55852,0.55318,0.404566
107,3105.28,5,84.0,32.5,-9.2106,2.60609,1.85619,-9.12211,2.68216,2.06603,0.00120822,0.0631703,0.0031285,42.6989,-4.87797,-13.0134,0.501219,-0.577354,-0.25299,0.592822,36.8125,0.916811,9.76735,-0.631097,0.692198,9.75273,-0.388546,-0.0212765,0.040604,-5.45499e-6,0.53514,-41.0006,15.0333,0.538602,-0.593105,-0.416271,-0.429945,32.0,9.51756,-0.723087,-2.61536,9.57628,-0.696822,-2.28011,-0.0364627,-0.00681048,0.00105696,-24.004,9.94332,5.56727,0.467013,0.558796,0.553086,0.404651
107,3105.29,5,84.0,32.5,-9.3245,2.53109,1.85474,-9.18251,2.71276,2.02072,0.00401104,0.0593572,-0.0454227,42.6843,-3.88434,-12.8881,0.500978,-0.577521,-0.253398,0.592689,36.8125,0.687924,9.69276,-0.635001,0.662475,9.75272,-0.327916,-0.0227921,0.0292907,-0.00710453,1.04108,-41.0198,15.601,0.538349,-0.593022,-0.416306,-0.430343,32.0,9.48053,-0.646912,-2.61621,9.62147,-0.696775,-2.25008,-0.00169958,0.0146739,-0.00101329,-24.1258,9.82149,5.85065,0.466568,0.559243,0.553044,0.404604
107,3105.3,5,84.0,32.5,-9.28537,2.72049,1.85468,-9.18264,2.75801,1.96022,-0.0509115,0.0414217,0.0059237,42.9268,-3.27698,-13.1548,0.501093,-0.57757,-0.253803,0.59237,36.8125,0.760821,9.7294,-0.749962,0.662565,9.75269,-0.312804,-0.0318107,0.0234174,-0.0368542,1.94586,-40.7948,15.183,0.53895,-0.592687,-0.416367,-0.429993,32.0,9.60091,-0.573935,-2.3453,9.56127,-0.65145,-2.28017,0.00247172,0.010624,0.013139,-24.3879,10.2212,5.99109,0.466087,0.559794,0.552924,0.40456
107,3105.31,5,84.0,32.5,-9.17548,2.60513,1.77975,-9.19682,2.78839,2.03567,-0.0213696,0.00751683,-0.0290445,42.9307,-3.64939,-13.0213,0.50109,-0.577524,-0.254099,0.592291,36.8125,0.802666,9.84301,-0.633411,0.647535,9.78296,-0.342851,-0.0222277,-0.00287407,0.000947836,1.43526,-40.7757,14.8973,0.539145,-0.592586,-0.416294,-0.429958,32.0,9.66137,-0.798366,-2.80636,9.53122,-0.681707,-2.27992,-0.0492666,-0.00648806,-0.0107898,-24.1255,9.43314,5.14194,0.466455,0.559395,0.552653,0.405059
107,3105.32,5,84.0,32.5,-9.20979,2.53055,1.89495,-9.19771,2.69777,2.02077,-0.0452433,0.0127617,-0.00579024,42.0719,-4.22429,-13.4097,0.501606,-0.576952,-0.253386,0.592716,36.8125,0.720419,9.729,-0.828135,0.677342,9.76784,-0.3733,-0.0249668,0.0475672,-0.0173982,1.44311,-41.2919,14.9003,0.539307,-0.592347,-0.416384,-0.429997,32.0,9.40339,-0.873928,-2.65418,9.54638,-0.651417,-2.24982,-0.0205505,-0.0133214,-0.0210189,-23.9985,9.68555,5.56759,0.466206,0.559509,0.55268,0.40515
107,3105.33,5,84.0,32.5,-9.21086,2.56815,1.85632,-9.21266,2.65262,2.08129,-0.0202472,0.0123052,-0.00798531,42.31,-3.61634,-13.1514,0.501664,-0.576847,-0.253361,0.59278,36.8125,0.800279,9.80484,-0.710772,0.647434,9.75275,-0.327825,-0.00999153,0.0450798,-0.0149021,1.69166,-40.398,14.615,0.539612,-0.592068,-0.416531,-0.429857,32.0,9.63054,-0.800056,-2.57513,9.53111,-0.636369,-2.31033,-0.0214538,-0.0156367,-0.0131656,-24.3778,9.44656,5.4247,0.466288,0.559345,0.552614,0.405373
107,3105.34,5,84.0,32.5,-9.25133,2.56777,1.77874,-9.13781,2.66711,2.00568,-0.0182919,0.000482089,-0.013355,42.3123,-3.86457,-13.0187,0.501691,-0.576745,-0.253361,0.592857,36.8125,0.722906,9.80482,-0.750894,0.662493,9.79806,-0.373122,0.0264032,0.0336898,-0.0154127,1.56137,-40.9096,15.181,0.539611,-0.592023,-0.416676,-0.429779,32.0,9.55239,-0.798618,-2.69171,9.56146,-0.63627,-2.23482,0.00400224,0.0345879,-0.0181418,-24.643,9.8456,5.28147,0.466759,0.558815,0.552495,0.405722
107,3105.35,5,84.0,32.5,-9.21969,2.64168,1.58652,-9.10728,2.78764,1.92988,0.0269768,-0.011514,-0.0223426,42.5572,-3.75336,-12.7574,0.501423,-0.576929,-0.253602,0.592802,36.8125,0.801223,9.72979,-0.67179,0.617441,9.7528,-0.312532,0.0264881,0.0122389,-0.00974521,0.394537,-40.2216,15.0279,0.53875,-0.592321,-0.416701,-0.430424,32.0,9.59202,-0.799498,-2.61412,9.54643,-0.696773,-2.23454,0.0312832,0.0337839,-0.00311048,-24.627,9.46066,5.99113,0.466436,0.559106,0.552697,0.405417
107,3105.36,5,84.0,32.5,-9.32771,2.6439,1.73885,-9.153,2.6823,1.97546,0.000743804,-0.0132436,-0.0377818,42.561,-3.87784,-13.0191,0.501305,-0.576843,-0.253627,0.592974,36.8125,0.721364,9.65395,-0.789153,0.708235,9.76758,-0.237474,0.00862218,0.0258883,-0.0337587,1.30447,-40.6419,14.8957,0.538782,-0.592215,-0.416825,-0.43041,32.0,9.40489,-0.798312,-2.61605,9.50123,-0.711945,-2.26452,0.0184219,-0.0232571,0.013651,-25.018,9.47807,5.28058,0.467017,0.558657,0.552434,0.405726
107,3105.37,5,84.0,32.5,-9.24839,2.60638,1.85562,-9.16694,2.74288,2.05084,0.0074611,-0.0164939,-0.0386346,42.0737,-4.59641,-13.0138,0.501708,-0.576336,-0.253251,0.593288,36.8125,0.718132,9.72848,-0.905616,0.677882,9.76771,-0.282628,0.00249199,0.0501706,-0.0210402,1.55548,-40.5225,15.1787,0.538864,-0.592032,-0.416981,-0.430409,32.0,9.66636,-0.685745,-2.65265,9.50133,-0.590927,-2.24978,-0.0377751,0.00469521,0.00825105,-24.0141,10.2001,5.14144,0.467248,0.558394,0.552411,0.405855
107,3105.38,5,84.0,32.5,-9.25159,2.52983,1.77886,-9.13692,2.74265,2.03571,-0.00303063,-0.00700931,-0.0217535,42.3118,-3.98846,-12.7555,0.501597,-0.576373,-0.253494,0.593241,36.8125,0.720519,9.76665,-0.828255,0.647715,9.78291,-0.312627,0.0104311,0.0234202,-0.0678588,1.31466,-41.158,14.7576,0.538995,-0.591838,-0.417243,-0.430257,32.0,9.52326,-0.686724,-2.42258,9.53124,-0.606082,-2.28016,0.0230858,-0.0350634,-0.00929188,-24.4974,9.5842,6.41694,0.466159,0.559304,0.552974,0.405086
107,3105.39,5,84.0,32.5,-9.29447,2.56672,1.62414,-9.12261,2.71228,1.97536,-0.0316915,0.024188,-0.0244631,42.067,-4.34759,-12.6216,0.501532,-0.576381,-0.253738,0.593184,36.8125,0.80371,9.80562,-0.594549,0.662847,9.78286,-0.297606,-0.0393603,0.0204262,-0.0150766,1.17602,-40.508,14.753,0.539024,-0.591695,-0.417197,-0.430461,32.0,9.66487,-0.761361,-2.69079,9.53123,-0.651457,-2.28001,-0.00566678,0.0223105,0.0148027,-24.3681,9.06026,5.56701,0.466278,0.559268,0.552804,0.405231
107,3105.4,5,84.0,32.5,-9.21006,2.68197,1.85594,-9.07727,2.72706,1.97528,-0.0190166,0.00937322,-0.0239402,43.1784,-3.66252,-12.8905,0.501402,-0.57651,-0.254328,0.592916,36.8125,0.801024,9.65449,-0.671549,0.647524,9.75273,-0.312713,0.000758384,0.0370635,-0.0216546,1.17836,-40.508,14.612,0.538948,-0.591595,-0.417314,-0.43058,32.0,9.44471,-0.761223,-2.53869,9.56116,-0.606113,-2.31059,-0.00350881,0.0129235,-0.017577,-24.5059,9.84128,6.13295,0.465614,0.559813,0.552885,0.40513
107,3105.41,5,84.0,32.5,-9.29206,2.71882,1.66215,-9.13755,2.74258,1.96021,-0.0358716,-0.00952935,-0.00137385,42.6816,-4.00793,-12.3624,0.501143,-0.576778,-0.254958,0.592604,36.8125,0.645433,9.76715,-0.790896,0.63229,9.72258,-0.312709,0.0382071,0.0295864,-0.0142029,1.68932,-40.398,14.7559,0.539115,-0.59149,-0.417516,-0.430319,32.0,9.48014,-0.722849,-2.61574,9.5612,-0.666594,-2.29526,-0.0137738,-0.0187283,0.0246371,-24.6325,9.71843,5.99081,0.465197,0.560299,0.55289,0.404931
107,3105.42,5,84.0,32.5,-9.17121,2.83344,1.85601,-9.16769,2.77298,1.92997,0.0000178299,-0.027971,0.00434873,42.8065,-3.89068,-12.6259,0.501019,-0.576909,-0.255188,0.592482,36.8125,0.763009,9.69226,-0.67236,0.602417,9.79817,-0.357647,0.0403523,0.00116747,-0.0256983,1.43882,-41.1629,15.0405,0.539115,-0.591505,-0.417679,-0.430142,32.0,9.66636,-0.685745,-2.65265,9.546,-0.651528,-2.34063,0.0168374,-0.016293,-0.0217361,-24.3774,9.57612,5.70821,0.465097,0.560271,0.553031,0.404893
107,3105.43,5,84.0,32.5,-9.25401,2.75646,1.6626,-9.13742,2.78786,1.92991,0.0174181,-0.00624432,-0.0072566,42.8008,-3.39408,-12.7601,0.500907,-0.577069,-0.255518,0.592279,36.8125,0.727282,9.73055,-0.59569,0.647236,9.70745,-0.312843,0.00622277,0.0225596,-0.0318926,1.82906,-40.6607,14.3354,0.5396,-0.591187,-0.417906,-0.42975,32.0,9.48273,-0.647555,-2.53901,9.53135,-0.65142,-2.24974,0.0636268,-0.0462384,-0.00692677,-24.6453,10.104,5.56483,0.46531,0.560007,0.553257,0.404703
107,3105.44,5,84.0,32.5,-9.25186,2.68126,1.73986,-9.12235,2.75758,1.96016,-0.0276634,-0.0193116,-0.027486,42.6904,-4.25704,-13.0171,0.501155,-0.576709,-0.255316,0.592506,36.8125,0.697273,9.77014,-0.325316,0.632734,9.70736,-0.22208,0.0148956,0.0417409,-0.0101971,1.55155,-40.2644,15.1772,0.539527,-0.59109,-0.418043,-0.429841,32.0,9.55499,-0.723324,-2.61497,9.5763,-0.621197,-2.28035,0.0523589,0.0258425,0.00789885,-23.4817,9.01396,4.86102,0.466273,0.559171,0.552979,0.405132
107,3105.45,5,84.0,32.5,-9.24625,2.72054,1.89376,-9.15249,2.77288,1.94506,-0.0225262,0.0226791,-0.0243921,42.1823,-3.36133,-13.1527,0.501138,-0.576641,-0.255234,0.592622,36.8125,0.834018,9.87899,-0.865285,0.648441,9.79786,-0.2068,-0.00688648,0.00873146,-0.00306953,1.42507,-40.2596,15.0353,0.53951,-0.591041,-0.418016,-0.429956,32.0,9.51886,-0.685439,-2.57699,9.50086,-0.681806,-2.35543,0.0270622,-0.0166136,-0.0177735,-24.1321,9.82012,5.2833,0.46657,0.558768,0.55315,0.405112
107,3105.46,5,84.0,32.5,-9.17468,2.71895,1.77937,-9.10816,2.75737,1.85444,-0.0210283,-0.0232839,-0.0241852,42.5661,-4.2504,-13.0169,0.501281,-0.576367,-0.254983,0.592877,36.8125,0.842024,9.88081,-0.5941,0.708709,9.82793,-0.222189,0.0259769,-0.0327048,-0.0161034,1.17493,-40.8954,15.1782,0.539344,-0.591242,-0.417925,-0.429976,32.0,9.44421,-0.646996,-2.57799,9.56115,-0.621238,-2.31054,0.0410386,-0.00647642,-0.0113398,-24.5083,9.58181,5.42408,0.466836,0.558446,0.553225,0.405148
107,3105.47,5,84.0,32.5,-9.28698,2.68222,1.8163,-9.13717,2.78789,1.96011,0.00632605,-0.0161413,-0.0252685,42.4406,-3.99569,-13.2806,0.501409,-0.576097,-0.254517,0.593231,36.8125,0.763408,9.84287,-0.672842,0.692683,9.84331,-0.403398,0.0303005,-0.00900379,-0.0125376,0.935573,-41.0144,14.1902,0.539132,-0.591503,-0.417825,-0.42998,32.0,9.51976,-0.723729,-2.53815,9.54615,-0.560741,-2.31065,-0.00316623,-0.0307924,-0.00223127,-24.636,10.1061,6.41585,0.465761,0.55945,0.553328,0.404859
107,3105.48,5,84.0,32.5,-9.29339,2.52912,1.66277,-9.13717,2.78789,1.96011,0.0157219,0.00937218,-0.0159662,42.057,-3.85041,-12.2309,0.500974,-0.576508,-0.255081,0.592956,36.8125,0.749483,9.76446,-1.13749,0.647373,9.82834,-0.418281,-0.00659216,0.0404819,-0.0281681,1.17639,-40.3789,14.6113,0.539024,-0.591418,-0.417929,-0.430132,32.0,9.58762,-0.798213,-2.76853,9.576,-0.575915,-2.35617,0.00872536,-0.00812855,0.0271589,-24.3731,9.44759,5.85021,0.465536,0.559733,0.553405,0.40462
107,3105.49,5,84.0,32.5,-9.21755,2.75584,1.62466,-9.13767,2.77275,1.91484,-0.0312979,0.0247314,-0.0052217,42.3151,-3.9889,-13.1492,0.501169,-0.57633,-0.254812,0.59308,36.8125,0.87049,9.69035,-0.902732,0.631126,9.73796,-0.524234,0.0210604,0.0545647,-0.0318427,1.54959,-40.1354,15.1765,0.53897,-0.591328,-0.418162,-0.430097,32.0,9.55758,-0.648029,-2.53823,9.56115,-0.651488,-2.31044,-0.00421978,-0.0640111,0.0029686,-24.643,9.8456,5.28147,0.46589,0.559341,0.553465,0.404673
107,3105.5,5,84.0,32.5,-9.36737,2.56798,1.70002,-9.1687,2.68234,1.89997,0.0163368,-0.0283298,-0.0188465,42.5533,-3.62888,-12.4957,0.500798,-0.576586,-0.255299,0.592936,36.8125,0.845157,9.76863,-0.477515,0.690812,9.66237,-0.524813,0.0375127,0.0313378,-0.0189783,1.43649,-41.1629,15.1815,0.538862,-0.591408,-0.418278,-0.430009,32.0,9.67057,-0.724999,-2.49801,9.57611,-0.651503,-2.32566,-0.00659898,-0.0300467,-0.0187758,-23.8852,10.0645,5.00022,0.466363,0.558692,0.553711,0.404688
107,3105.51,5,84.0,32.5,-9.17495,2.68101,1.7795,-9.1687,2.69743,1.88483,0.0242739,0.000391403,0.0164439,42.3107,-3.98831,-12.6243,0.500631,-0.576788,-0.255244,0.592904,36.8125,0.877253,9.65425,-0.670167,0.69284,9.78281,-0.3129,0.0493029,0.00826199,-0.0129011,1.30055,-40.3838,14.8942,0.538693,-0.591542,-0.418354,-0.429963,32.0,9.55609,-0.723645,-2.57637,9.60616,-0.606121,-2.32596,0.0151538,-0.0161696,-0.0162252,-24.0032,9.68453,5.14208,0.466738,0.558204,0.553792,0.404819
107,3105.52,5,84.0,32.5,-9.13929,2.56656,1.74193,-9.13868,2.74246,1.8243,0.0146089,-0.00754927,0.00770534,42.4332,-3.3749,-13.4156,0.500553,-0.576782,-0.254665,0.593224,36.8125,0.692598,9.73145,-0.480158,0.692084,9.6923,-0.343383,0.0341421,0.0304478,-0.050931,1.03432,-40.1164,15.1728,0.538325,-0.591597,-0.418565,-0.430142,32.0,9.62524,-0.760482,-2.76838,9.57623,-0.666591,-2.29534,0.0188428,-0.00881574,-0.00117951,-24.4985,9.19551,5.5664,0.466803,0.558135,0.5538,0.404829
107,3105.53,5,84.0,32.5,-9.06292,2.6798,1.74269,-9.0784,2.75712,1.80911,0.0288726,-0.00417725,-0.00035549,42.3106,-3.74038,-13.0195,0.500441,-0.576856,-0.254352,0.593381,36.8125,0.761666,9.61669,-0.71086,0.648627,9.81293,-0.191644,-0.00388103,0.0161624,-0.00500267,1.69682,-41.0433,14.9007,0.538609,-0.591395,-0.418623,-0.430008,32.0,9.59021,-0.722918,-2.69179,9.53103,-0.681763,-2.32532,0.0298257,-0.0384287,0.00172264,-24.2703,9.95367,4.57349,0.467972,0.556882,0.554094,0.404802
107,3105.54,5,84.0,32.5,-9.14411,2.6411,1.58766,-9.07827,2.74204,1.83934,0.0149843,0.0191001,-0.0265246,42.5694,-4.25085,-13.4106,0.500593,-0.576612,-0.253745,0.59375,36.8125,0.752516,9.61462,-1.02079,0.691166,9.64717,-0.449297,0.0687357,0.0114193,-0.00602575,1.05653,-40.503,14.1881,0.538331,-0.591671,-0.418679,-0.429922,32.0,9.44621,-0.685607,-2.50055,9.5311,-0.651494,-2.31028,0.00346642,-0.0366913,0.0000940822,-24.1216,9.17504,5.00042,0.468411,0.556442,0.55394,0.40511
107,3105.55,5,84.0,32.5,-9.10472,2.67908,1.62661,-9.01774,2.74163,1.86948,0.00128227,0.0333159,-0.0178886,42.8126,-4.26338,-12.7548,0.500348,-0.576835,-0.253956,0.59365,36.8125,0.829144,9.765,-1.01989,0.690998,9.67744,-0.509658,0.0242712,-0.0285174,-0.0199698,0.921955,-40.8857,14.8944,0.538042,-0.591991,-0.418546,-0.429973,32.0,9.59281,-0.647624,-2.61506,9.5313,-0.621189,-2.26498,0.0228062,-0.044688,0.000857725,-23.8517,8.77702,5.56916,0.468085,0.556685,0.554286,0.404681
107,3105.56,5,84.0,32.5,-9.24732,2.56878,1.89425,-9.06321,2.71176,1.86959,-0.00844599,0.0246303,-0.0233097,42.4356,-3.87106,-12.8877,0.500207,-0.576913,-0.25407,0.593644,36.8125,0.722707,9.72952,-0.750653,0.737334,9.78286,-0.418956,0.00961553,-0.0203683,0.0154489,1.29196,-40.1259,15.1746,0.537949,-0.592184,-0.418358,-0.430006,32.0,9.62583,-0.646576,-2.76908,9.48621,-0.696823,-2.26449,0.0117618,-0.0435074,-0.00152348,-24.2508,9.69898,5.85035,0.46747,0.557273,0.55445,0.404356
107,3105.57,5,84.0,32.5,-9.40436,2.49273,1.73821,-9.07904,2.65143,1.83954,0.0133323,0.0354845,-0.0377156,42.5533,-3.62888,-12.4957,0.499699,-0.577316,-0.254735,0.593394,36.8125,0.643991,9.65393,-0.829275,0.767314,9.75258,-0.404112,0.0477814,0.011286,-0.00224966,1.16437,-40.5084,15.4579,0.537603,-0.592413,-0.418375,-0.430108,32.0,9.40359,-0.83596,-2.65442,9.48598,-0.636398,-2.32523,-0.0128616,-0.04027,-0.00864757,-23.8786,9.67748,4.85886,0.467977,0.556633,0.554602,0.404443
107,3105.58,5,84.0,32.5,-9.26416,2.6403,1.39342,-9.13919,2.66697,1.83957,0.00419591,0.0223728,0.00769969,42.0592,-3.8507,-12.4934,0.499478,-0.57757,-0.254882,0.59327,36.8125,0.765596,9.80574,-0.59524,0.6767,9.73776,-0.448946,0.0214671,-0.00254204,-0.00921122,2.08044,-40.4122,14.4767,0.538303,-0.592181,-0.418502,-0.429428,32.0,9.66837,-0.724356,-2.57521,9.53109,-0.681744,-2.31019,0.0352741,-0.0280498,0.00262205,-24.6422,10.1047,5.8485,0.467592,0.557037,0.554716,0.404174
107,3105.59,5,84.0,32.5,-9.25534,2.56677,1.66322,-9.18491,2.63707,1.80948,0.0686101,0.025462,-0.0122493,42.6888,-4.38078,-12.6227,0.499052,-0.577889,-0.254692,0.5934,36.8125,0.918453,9.95588,-0.592959,0.616973,9.70756,-0.342885,0.0197005,0.00202761,-0.0292223,1.55671,-40.9097,15.4629,0.538361,-0.592145,-0.418608,-0.4293,32.0,9.51906,-0.647471,-2.57722,9.57604,-0.651521,-2.34079,-0.0231503,-0.0177249,0.012018,-24.3825,9.44554,4.99919,0.468142,0.556532,0.554497,0.404535
107,3105.6,5,84.0,32.5,-9.29554,2.60433,1.58551,-9.19922,2.66743,1.86983,-0.00921784,0.0543089,-0.0081565,42.4324,-4.11855,-12.0988,0.498499,-0.578431,-0.255341,0.593058,36.8125,0.766939,9.8813,-0.55674,0.618083,9.78288,-0.236885,0.0568016,0.0470442,-0.0573235,1.29086,-40.5132,15.5998,0.538041,-0.592085,-0.419012,-0.42939,32.0,9.59111,-0.761208,-2.65296,9.57612,-0.591003,-2.32585,-0.0103608,0.00795876,0.0241086,-23.9899,9.42848,5.85158,0.467601,0.557127,0.55457,0.404241
107,3105.61,5,84.0,32.5,-9.32771,2.6439,1.73885,-9.19935,2.66742,1.85473,0.0100483,0.0322895,-0.000259727,42.5627,-4.00203,-13.0184,0.4985,-0.578412,-0.254903,0.593264,36.8125,0.682603,9.84208,-0.829188,0.618292,9.8584,-0.282005,0.0604802,0.0118243,-0.0584718,1.30447,-40.6419,14.8957,0.537944,-0.592086,-0.419318,-0.429212,32.0,9.51846,-0.761376,-2.57652,9.56126,-0.6817,-2.28008,-0.0266157,0.00751965,0.00594369,-24.2458,9.31165,5.56715,0.467461,0.557279,0.554497,0.404293
107,3105.62,5,84.0,32.5,-9.18457,2.64072,1.51008,-9.15287,2.74266,1.93002,0.0139315,0.0201747,-0.0173121,42.3095,-3.74023,-12.8882,0.49845,-0.578414,-0.254716,0.593384,36.8125,0.64782,9.80532,-0.713535,0.572616,9.8284,-0.342267,0.0357713,-0.0150791,-0.0324759,0.670949,-41.0051,14.6113,0.537511,-0.592382,-0.41929,-0.429375,32.0,9.66746,-0.686066,-2.61405,9.56094,-0.696918,-2.3557,0.0326661,0.0246866,-0.012645,-24.3961,10.0899,4.99839,0.468218,0.556439,0.554665,0.404345
107,3105.63,5,84.0,32.5,-9.2516,2.71919,1.73973,-9.16794,2.75786,1.9149,-0.0351618,0.0300546,-0.0218123,42.6848,-3.76044,-13.1513,0.498535,-0.578277,-0.254563,0.593512,36.8125,0.837349,9.84212,-0.748942,0.572251,9.81337,-0.387646,0.0534925,0.00660294,-0.0117163,1.17689,-41.0244,15.1789,0.537235,-0.592505,-0.419448,-0.429395,32.0,9.59221,-0.761529,-2.61435,9.56108,-0.651506,-2.32558,0.0169934,0.0088497,0.0454579,-24.3856,9.96277,5.70774,0.468053,0.556826,0.554567,0.404138
107,3105.64,5,84.0,32.5,-9.17495,2.68101,1.7795,-9.16895,2.71249,1.8395,-0.0264905,0.0223745,-0.0328097,42.8036,-3.51841,-12.8906,0.498398,-0.57832,-0.254835,0.593468,36.8125,0.642002,9.76637,-0.907119,0.617477,9.84348,-0.402944,0.00638928,0.00747702,-0.0181652,1.55511,-40.6516,15.3205,0.537357,-0.592429,-0.419515,-0.429282,32.0,9.44161,-0.722291,-2.65473,9.51589,-0.636428,-2.35566,-0.015289,-0.0375825,0.00555053,-24.5079,9.71137,5.7076,0.467691,0.557143,0.55469,0.40395
107,3105.65,5,84.0,32.5,-9.22049,2.52787,1.5869,-9.13919,2.65188,1.8547,0.0145042,0.0467834,-0.0231304,42.5588,-3.87755,-12.7567,0.498178,-0.578482,-0.254873,0.593478,36.8125,0.799235,9.84224,-0.749633,0.647367,9.81323,-0.403212,0.0234247,-0.00197849,-0.0328321,1.45134,-41.6789,14.7616,0.537567,-0.592335,-0.419666,-0.429001,32.0,9.44291,-0.684644,-2.61636,9.51583,-0.651572,-2.37074,0.0679224,-0.0223637,0.0334831,-23.7571,10.1877,5.28419,0.467937,0.557037,0.554835,0.403612
107,3105.66,5,84.0,32.5,-9.29848,2.56572,1.50862,-9.15389,2.63694,1.91515,0.0451403,0.0452001,0.0206697,41.9431,-3.96913,-13.2798,0.498352,-0.578367,-0.253821,0.593896,36.8125,0.875265,9.76669,-0.74801,0.677354,9.79807,-0.403437,0.0306616,0.00802699,-0.039242,1.4274,-40.2595,14.8943,0.537605,-0.592338,-0.419793,-0.428825,32.0,9.47684,-0.721886,-2.73155,9.51601,-0.666641,-2.32529,0.0291629,0.0208569,-0.00323729,-24.2583,9.82683,5.42468,0.46811,0.55686,0.554859,0.403623
107,3105.67,5,84.0,32.5,-9.20899,2.64437,1.89457,-9.1682,2.65222,1.99064,0.00258064,0.0461046,-0.00993845,42.8076,-3.89083,-12.7571,0.498209,-0.578544,-0.254084,0.593731,36.8125,0.838692,9.91768,-0.710443,0.722005,9.73761,-0.418995,-0.0154677,-0.0120893,-0.0247726,1.3143,-41.2871,14.8994,0.537753,-0.592346,-0.419675,-0.428744,32.0,9.51886,-0.685439,-2.57699,9.53079,-0.651587,-2.38596,0.017069,-0.0379453,0.00405681,-24.6395,9.97585,5.84866,0.467705,0.557231,0.555064,0.403298
107,3105.68,5,84.0,32.5,-9.20926,2.60643,1.8947,-9.18277,2.71273,1.99052,0.0277843,0.0595574,0.00670135,42.9342,-4.14569,-12.6246,0.49802,-0.578866,-0.254275,0.593493,36.8125,0.721463,9.6916,-0.789273,0.707437,9.798,-0.403619,-0.0166637,-0.0177409,0.00604306,1.30288,-40.3838,14.7532,0.537824,-0.592419,-0.419464,-0.428761,32.0,9.47904,-0.722528,-2.65435,9.54595,-0.606172,-2.35591,-0.0501255,-0.00648445,-0.0131552,-24.6356,9.71774,5.70714,0.46738,0.557421,0.555077,0.403394
107,3105.69,5,84.0,32.5,-9.13957,2.71798,1.70293,-9.15262,2.7276,1.97536,0.0507055,0.0256989,0.0075789,42.3135,-4.11265,-12.7548,0.498032,-0.578938,-0.25395,0.593553,36.8125,0.795106,9.57789,-0.865012,0.661929,9.73773,-0.403519,0.00789564,0.00401553,-0.0449652,1.68626,-40.6563,15.1804,0.53808,-0.592316,-0.419557,-0.42849,32.0,9.58832,-0.874471,-2.72946,9.56089,-0.651562,-2.37098,-0.0366718,-0.014749,0.0167367,-24.2606,10.0853,5.70803,0.467015,0.557823,0.555002,0.403365
107,3105.7,5,84.0,32.5,-9.35935,2.56999,1.93106,-9.13768,2.71239,1.97538,0.0125374,0.0167339,0.0101334,43.0513,-3.77947,-12.3646,0.497783,-0.57931,-0.254559,0.593137,36.8125,0.76112,9.84236,-0.750324,0.646336,9.70766,-0.463963,0.0630796,0.00515963,-0.0191636,0.939869,-41.1434,14.0499,0.537803,-0.592593,-0.419606,-0.428407,32.0,9.66487,-0.761361,-2.69079,9.5458,-0.696958,-2.38589,-0.0339436,-0.0113519,0.0380447,-24.6391,10.1054,6.13217,0.466345,0.558634,0.55494,0.403103
107,3105.71,5,84.0,32.5,-9.17334,2.52992,1.85701,-9.06233,2.71185,1.9753,0.0430429,0.0668527,-0.011247,42.3218,-4.48565,-13.1462,0.498209,-0.579008,-0.253814,0.593394,36.8125,0.762264,9.84262,-0.711583,0.64708,9.76795,-0.403342,-0.0176669,-0.0140285,0.022293,0.914963,-40.8859,15.3173,0.537436,-0.59278,-0.419383,-0.428827,32.0,9.55499,-0.723324,-2.61497,9.53065,-0.681874,-2.41613,-0.00135575,-0.0543705,0.00227881,-23.6075,9.15024,5.28592,0.466439,0.558514,0.554974,0.403114
107,3105.72,5,84.0,32.5,-9.28484,2.60701,1.89356,-9.07727,2.69688,2.00555,0.00594295,0.00587358,0.0147103,42.6861,-4.25645,-12.4922,0.498199,-0.57912,-0.253948,0.593236,36.8125,0.835261,9.91691,-0.826665,0.647451,9.79809,-0.373032,0.034944,-0.0251894,-0.0210741,1.17259,-40.8954,15.3192,0.53726,-0.592947,-0.419396,-0.428805,32.0,9.59312,-0.799819,-2.57552,9.54573,-0.712102,-2.40098,-0.0339687,0.0196745,-0.019957,-23.9841,8.78236,5.14319,0.466893,0.558073,0.554455,0.403912
107,3105.73,5,84.0,32.5,-9.32503,2.45521,1.85499,-9.09323,2.62146,1.97553,0.0486722,0.00785141,-0.00137979,42.0653,-3.97548,-13.0175,0.498218,-0.579013,-0.253251,0.593622,36.8125,0.84088,9.88055,-0.63284,0.662145,9.82837,-0.463708,-0.0190668,-0.0480498,0.00470904,1.3073,-41.2873,15.3223,0.537361,-0.593062,-0.419144,-0.428764,32.0,9.62704,-0.837061,-2.69071,9.546,-0.636403,-2.34068,-0.0594691,0.0199637,-0.00347893,-24.2618,10.2145,5.84971,0.466351,0.558582,0.554242,0.404126
107,3105.74,5,84.0,32.5,-9.2524,2.60538,1.74011,-9.15263,2.68234,2.02076,0.039006,0.0116083,0.0195052,42.6811,-4.13182,-12.0992,0.497745,-0.579569,-0.253795,0.593243,36.8125,0.726238,9.76795,-0.634551,0.663056,9.85839,-0.342725,-0.0231091,-0.0248241,-0.0070125,1.80329,-39.8868,15.1768,0.537779,-0.592982,-0.418982,-0.42851,32.0,9.58632,-0.83586,-2.8069,9.561,-0.712024,-2.34052,-0.0313135,-0.0350677,0.0331028,-24.3844,9.83354,5.56606,0.466286,0.558766,0.554155,0.404068
107,3105.75,5,84.0,32.5,-9.21514,2.52921,1.74092,-9.15288,2.65214,2.02083,0.00546447,0.0193949,-0.00992743,42.6716,-3.51074,-11.9717,0.497463,-0.579988,-0.254982,0.592561,36.8125,0.794859,9.91651,-0.904838,0.677246,9.75274,-0.373343,0.0112632,-0.0313421,-0.00570479,1.18082,-41.2825,15.1804,0.537699,-0.593152,-0.418843,-0.42851,32.0,9.51536,-0.722444,-2.69256,9.57616,-0.666609,-2.31047,-0.00920925,0.0183468,0.0123929,-24.2571,9.69761,5.283,0.466684,0.558438,0.553982,0.404297
107,3105.76,5,84.0,32.5,-9.06292,2.6798,1.74269,-9.07841,2.60623,1.96045,0.036363,0.00188939,0.0325265,42.565,-4.25026,-12.8857,0.497739,-0.579807,-0.254302,0.592798,36.8125,0.908804,9.76554,-0.902283,0.722664,9.81304,-0.388555,0.00244703,-0.0337271,-0.00963819,1.43722,-40.9047,14.8981,0.5379,-0.59322,-0.418697,-0.428306,32.0,9.47734,-0.836113,-2.69225,9.59112,-0.666625,-2.32569,-0.0153963,-0.0386715,-0.0188799,-23.9868,9.42916,6.13525,0.465718,0.559201,0.554379,0.403814
107,3105.77,5,84.0,32.5,-9.172,2.53026,1.89551,-9.10817,2.65176,1.96038,-0.000180403,0.0233875,0.0168669,42.6843,-3.88434,-12.8881,0.497844,-0.579784,-0.254084,0.592827,36.8125,0.884315,9.73111,-0.437963,0.766876,9.78292,-0.50981,-0.022827,-0.0626146,-0.00377005,0.653768,-40.4892,15.1723,0.537499,-0.593633,-0.418278,-0.428647,32.0,9.62174,-0.797486,-2.88396,9.56114,-0.681737,-2.31034,-0.0464234,-0.052641,0.012417,-24.5172,10.2272,5.8488,0.465246,0.559675,0.554327,0.403772
107,3105.78,5,84.0,32.5,-9.32557,2.56869,1.81611,-9.12325,2.6066,2.00579,0.0156652,-0.0283394,0.011226,42.4279,-3.87002,-11.9691,0.497517,-0.580132,-0.254729,0.592483,36.8125,0.835807,9.69125,-0.787201,0.797505,9.79784,-0.434388,-0.0561685,0.00303392,0.0254372,0.784182,-40.7521,15.3157,0.537185,-0.593777,-0.417906,-0.429203,32.0,9.59411,-0.609976,-2.57669,9.53091,-0.65155,-2.35569,0.0104716,-0.00514816,0.00907345,-24.6286,9.46032,5.8493,0.465159,0.559775,0.554388,0.40365
107,3105.79,5,84.0,32.5,-9.28858,2.64394,1.77792,-9.10855,2.62154,1.94534,0.0187461,-0.0283821,-0.0522406,42.9253,-3.64865,-12.3651,0.497226,-0.580204,-0.25527,0.592425,36.8125,0.920142,9.73047,-0.514754,0.782638,9.78271,-0.389005,-0.00419851,-0.0173018,-0.0113935,0.912133,-40.2405,14.8906,0.537033,-0.593949,-0.417722,-0.429336,32.0,9.47923,-0.68456,-2.65458,9.57616,-0.666609,-2.31047,-0.0141294,0.0234982,0.0210934,-23.8676,9.67987,5.85172,0.464848,0.560183,0.554253,0.403626
107,3105.8,5,84.0,32.5,-9.29206,2.52945,1.70128,-9.12274,2.66701,2.00566,0.0134685,0.0180725,-0.0324267,42.6821,-3.88404,-12.6257,0.497187,-0.580155,-0.255324,0.592482,36.8125,0.833719,9.76603,-0.864924,0.722184,9.73757,-0.388771,-0.00403638,-0.050097,-0.0113742,1.67301,-40.3985,15.7429,0.537345,-0.594029,-0.417514,-0.429036,32.0,9.55538,-0.647386,-2.61544,9.54594,-0.636422,-2.35582,-0.00944582,-0.0157409,0.0152236,-24.3704,9.3187,5.85037,0.46466,0.560388,0.554291,0.403506
107,3105.81,5,84.0,32.5,-9.36496,2.72007,1.73803,-9.15275,2.7125,1.97539,-0.0130091,0.00185494,-0.0274469,42.6806,-4.25571,-11.836,0.496721,-0.580499,-0.255971,0.592257,36.8125,0.872033,9.84122,-0.864474,0.737328,9.76774,-0.403887,-0.01562,-0.0421011,-0.038452,1.68393,-40.6563,15.3214,0.537822,-0.593976,-0.417388,-0.428635,32.0,9.55318,-0.646744,-2.69265,9.54594,-0.636422,-2.35582,-0.0399125,-0.0321782,-0.0251854,-25.0247,9.86505,5.42194,0.464965,0.55993,0.554225,0.403882
107,3105.82,5,84.0,32.5,-9.29206,2.71882,1.66215,-9.18365,2.68246,1.91508,0.0172367,0.0110244,-0.0476458,42.3085,-3.98802,-12.3618,0.496574,-0.580463,-0.256013,0.592397,36.8125,0.796549,9.6911,-0.826632,0.691922,9.73768,-0.418813,-0.0288921,-0.0138664,-0.0201562,1.29821,-40.3839,15.0351,0.537964,-0.59393,-0.417275,-0.42863,32.0,9.55408,-0.685034,-2.65381,9.53104,-0.651513,-2.32542,-0.0146118,-0.0179309,0.0207036,-24.5122,9.83991,5.5656,0.465108,0.559857,0.554138,0.403937
107,3105.83,5,84.0,32.5,-9.33734,2.60361,1.46943,-9.15363,2.66714,1.91509,0.034096,0.00528255,-0.0542957,42.6771,-3.75941,-12.2327,0.496225,-0.580616,-0.256387,0.592379,36.8125,0.837349,9.84212,-0.748942,0.662133,9.79814,-0.43357,-0.016261,0.00565545,0.0221265,0.796701,-41.2681,15.0367,0.537607,-0.594116,-0.417059,-0.429031,32.0,9.51595,-0.608538,-2.69327,9.48591,-0.636416,-2.34036,0.0303735,0.00394629,0.0139375,-23.9911,9.5577,5.99326,0.464728,0.560278,0.554259,0.403626
107,3105.84,5,84.0,32.5,-9.40382,2.37924,1.77709,-9.16807,2.6975,1.96034,-0.00519233,0.0255959,-0.0207292,42.4356,-4.11899,-12.4925,0.496383,-0.580446,-0.256278,0.592459,36.8125,1.03175,9.99291,-0.629748,0.677534,9.79802,-0.373213,0.00789499,-0.00523542,-0.000540888,1.69485,-40.9142,14.8999,0.537978,-0.594001,-0.417071,-0.428713,32.0,9.40198,-0.721412,-2.73232,9.50099,-0.666644,-2.32521,-0.0644639,-0.00191727,-0.0139379,-24.5024,9.45361,5.70792,0.464585,0.560324,0.554112,0.403927
107,3105.85,5,84.0,32.5,-9.2114,2.68163,1.81744,-9.15338,2.66717,1.94529,0.0432635,-0.00854855,-0.0462665,42.9314,-4.02136,-12.4941,0.496202,-0.580422,-0.25625,0.592647,36.8125,0.838493,9.84238,-0.710201,0.707527,9.79798,-0.388507,0.0191312,0.00722877,-0.00655845,1.71007,-41.3011,14.3382,0.538436,-0.593755,-0.417249,-0.428305,32.0,9.66636,-0.685745,-2.65265,9.53115,-0.69685,-2.295,-0.0192198,-0.0247645,-0.0226982,-24.6348,9.97687,6.27417,0.463796,0.560975,0.554204,0.403805
107,3105.86,5,84.0,32.5,-9.24598,2.75848,1.89363,-9.13869,2.68211,1.88484,0.0299635,-0.00529777,-0.0112402,42.555,-4.001,-12.0998,0.495955,-0.58062,-0.25643,0.592582,36.8125,0.646477,9.72975,-0.752035,0.722748,9.7979,-0.358374,-0.0251878,0.00952575,-0.00360568,1.68037,-40.2692,15.1782,0.5387,-0.593648,-0.417138,-0.428229,32.0,9.51276,-0.797739,-2.7693,9.56113,-0.696862,-2.3103,-0.0337947,-0.0564519,0.00296166,-24.8993,10.1171,5.70575,0.463798,0.560938,0.554204,0.403855
107,3105.87,5,84.0,32.5,-9.36496,2.72007,1.73803,-9.15287,2.74266,1.93002,-0.0072697,0.0112848,0.007192,42.8081,-4.01486,-12.6251,0.496159,-0.580501,-0.256239,0.59261,36.8125,0.764352,9.76783,-0.63386,0.72285,9.82811,-0.373399,-0.0122032,-0.0192648,0.00154709,0.658063,-40.6182,15.032,0.538243,-0.593935,-0.416881,-0.428656,32.0,9.59162,-0.875435,-2.61365,9.57597,-0.666665,-2.35588,0.0217461,-0.0518738,0.00866493,-24.2481,9.5701,5.85051,0.463607,0.561128,0.554347,0.403614
107,3105.88,5,84.0,32.5,-9.33145,2.68083,1.6232,-9.13691,2.84827,1.92977,0.0436672,-0.0293713,-0.0135095,43.3083,-3.91782,-13.1516,0.496258,-0.580301,-0.255587,0.593004,36.8125,0.833818,9.80369,-0.865044,0.707797,9.79791,-0.343171,0.011866,-0.0314542,-0.000921654,1.93371,-40.1497,15.3202,0.538651,-0.593978,-0.416724,-0.428235,32.0,9.47224,-0.758569,-2.88573,9.53097,-0.681781,-2.34045,0.0112037,0.0175805,0.00928853,-23.988,9.04047,5.28471,0.464246,0.560634,0.553956,0.404102
107,3105.89,5,84.0,32.5,-9.1688,2.79617,1.93315,-9.12172,2.81799,1.97513,0.059277,-0.0321583,-0.00336847,42.8037,-3.76634,-12.4954,0.496202,-0.580364,-0.255496,0.593029,36.8125,0.873376,9.91679,-0.825974,0.677636,9.82823,-0.388239,0.00465957,-0.0106834,-0.0131217,1.30251,-40.5129,14.8949,0.538674,-0.594015,-0.416684,-0.428195,32.0,9.59441,-0.762172,-2.53715,9.56095,-0.666668,-2.3558,0.0093319,0.0105593,0.0289112,-24.6372,9.7174,5.5653,0.464643,0.560391,0.553799,0.404198
107,3105.9,5,84.0,32.5,-9.13716,2.68072,1.78006,-9.15186,2.80312,1.99029,0.0462419,0.0134803,-0.0079146,42.6882,-4.00882,-13.1498,0.496388,-0.580152,-0.254718,0.593414,36.8125,0.760921,9.76705,-0.750083,0.677462,9.84339,-0.433532,0.018778,0.00999289,-0.0194455,1.17333,-40.6372,15.0357,0.538498,-0.594091,-0.416731,-0.428265,32.0,9.55738,-0.685998,-2.538,9.51608,-0.651497,-2.3102,-0.00418564,-0.0125066,0.0302348,-25.1465,9.74322,5.70531,0.464889,0.560289,0.553624,0.404295
107,3105.91,5,84.0,32.5,-9.2516,2.71919,1.73973,-9.13743,2.7426,1.97531,0.0407019,-0.0126166,-0.0405821,42.6811,-4.13182,-12.0992,0.495973,-0.580397,-0.255095,0.593361,36.8125,0.761965,9.72965,-0.711221,0.692114,9.76787,-0.418727,0.00315593,-0.0257735,0.000777868,1.30301,-41.1583,15.4626,0.538452,-0.594222,-0.416593,-0.428277,32.0,9.66597,-0.761682,-2.65219,9.53085,-0.636443,-2.37087,-0.00754406,-0.0332275,-0.0156572,-23.9954,9.68624,5.85126,0.464433,0.560614,0.553758,0.404185
107,3105.92,5,84.0,32.5,-9.21407,2.68096,1.74042,-9.13742,2.75768,1.96017,0.0484063,0.00140442,-0.0224813,43.4277,-4.04776,-12.3637,0.495663,-0.580662,-0.255393,0.593232,36.8125,0.874021,9.72878,-0.78663,0.677432,9.76782,-0.358188,0.00396605,-0.00681653,-0.00336411,1.1699,-41.0246,15.6019,0.538252,-0.594311,-0.416541,-0.428455,32.0,9.55549,-0.837551,-2.57567,9.546,-0.651528,-2.34063,0.0174271,-0.0266078,0.00180086,-24.8946,9.60024,5.13904,0.465282,0.559817,0.553556,0.404589
107,3105.93,5,84.0,32.5,-9.24946,2.64399,1.81699,-9.13793,2.72745,1.93004,0.0556895,0.0331821,0.00287197,43.1879,-4.2836,-13.0179,0.495819,-0.580572,-0.254762,0.593462,36.8125,0.762264,9.84262,-0.711583,0.707617,9.79796,-0.373395,0.0332896,0.0279077,-0.0476101,0.921955,-40.8857,14.8944,0.537961,-0.594393,-0.416693,-0.428557,32.0,9.55479,-0.761292,-2.61474,9.53105,-0.606138,-2.32556,0.0299225,0.0161796,0.0164143,-23.9868,8.91125,5.14303,0.465966,0.559296,0.553185,0.405031
107,3105.94,5,84.0,32.5,-9.25026,2.71953,1.77824,-9.12121,2.86331,1.99013,0.0220771,0.0114873,-0.00411655,42.9313,-3.77343,-12.8893,0.495919,-0.580538,-0.254554,0.5935,36.8125,0.912236,9.76631,-0.78606,0.707521,9.78286,-0.373438,-0.0339069,0.0118146,-0.0317801,1.56014,-40.5224,14.8968,0.538337,-0.594152,-0.416702,-0.428411,32.0,9.55239,-0.798618,-2.69171,9.54617,-0.727097,-2.29498,0.010575,-0.0822383,0.0185914,-24.6356,9.71774,5.70714,0.465782,0.559522,0.553317,0.404749
107,3105.95,5,84.0,32.5,-9.40409,2.72003,1.69896,-9.16743,2.81827,1.91477,0.055962,-0.00841049,-0.0193571,42.6699,-3.38656,-11.9725,0.495582,-0.580933,-0.255284,0.593081,36.8125,0.830188,9.7276,-0.981025,0.647463,9.82832,-0.403169,-0.0242797,-0.0081445,-0.019023,1.56983,-40.393,14.1911,0.538836,-0.593862,-0.416765,-0.428125,32.0,9.59791,-0.725167,-2.42157,9.47087,-0.696919,-2.34009,-0.0393437,0.00882372,0.00907338,-24.3887,9.96208,5.42406,0.465964,0.559359,0.553218,0.404901
107,3105.96,5,84.0,32.5,-9.20525,2.79679,1.97109,-9.13717,2.80297,1.94497,-0.00640367,-0.0135798,-0.0153249,42.4334,-3.87076,-12.6252,0.495761,-0.580721,-0.255109,0.593215,36.8125,0.760722,9.69174,-0.749842,0.706981,9.78299,-0.46411,0.0193629,-0.0154213,-0.019478,1.04451,-40.6325,15.0348,0.538592,-0.594072,-0.416699,-0.428204,32.0,9.73661,-0.722903,-2.80606,9.51587,-0.712053,-2.35541,0.0387878,0.0272038,0.0133901,-24.2645,9.82547,4.85733,0.467093,0.558306,0.553248,0.405012
107,3105.97,5,84.0,32.5,-9.29179,2.56739,1.70116,-9.13704,2.81808,1.94494,0.0112217,-0.00588962,0.00938587,42.4383,-3.74746,-13.4134,0.495999,-0.580406,-0.254056,0.593776,36.8125,0.797792,9.72902,-0.788012,0.692012,9.73766,-0.403701,0.0288401,0.0235394,-0.0366486,1.29515,-40.6422,15.4596,0.538406,-0.59409,-0.416865,-0.428251,32.0,9.62343,-0.683902,-2.84605,9.54568,-0.651621,-2.41631,0.0179685,-0.0653101,0.0297979,-23.8657,9.29186,5.28485,0.467218,0.558259,0.553351,0.404792
107,3105.98,5,84.0,32.5,-9.25561,2.71819,1.62421,-9.10715,2.80274,1.92984,0.00155147,0.0157431,-0.0184524,42.5623,-4.37385,-12.36,0.496002,-0.58042,-0.254162,0.593714,36.8125,0.872977,9.76617,-0.825492,0.69191,9.70745,-0.388676,0.0162677,0.00153642,-0.0434033,1.44201,-41.6792,15.3255,0.538518,-0.59405,-0.416965,-0.42807,32.0,9.44181,-0.684323,-2.65497,9.59088,-0.636449,-2.38632,0.0123004,-0.0279413,0.0112277,-24.254,9.69829,5.56667,0.467114,0.558366,0.553456,0.404621
107,3105.99,5,84.0,32.5,-9.09803,2.68076,1.81914,-9.18364,2.77299,1.82428,-0.00174596,0.0115451,-0.0169598,42.9414,-4.51854,-12.8848,0.496235,-0.580168,-0.253791,0.593925,36.8125,0.876608,9.84226,-0.709511,0.706951,9.70742,-0.388767,0.0375081,-0.0162762,0.0182207,1.16977,-40.25,14.8925,0.53829,-0.594312,-0.416847,-0.428107,32.0,9.63074,-0.762088,-2.57537,9.57597,-0.68179,-2.35583,0.00707942,-0.0295968,-0.00770726,-24.6224,8.94378,5.42442,0.467301,0.558164,0.553334,0.404852
107,3106.0,5,84.0,32.5,-9.29768,2.67953,1.50825,-9.13754,2.81802,1.88454,0.0525591,0.0156413,0.00560723,42.6821,-3.88404,-12.6257,0.496101,-0.580386,-0.253689,0.593867,36.8125,0.870889,9.84096,-0.903215,0.67697,9.73769,-0.40361,0.0417723,0.0191734,-0.0242494,1.17026,-40.8955,15.4602,0.537986,-0.594416,-0.416994,-0.428202,32.0,9.48084,-0.799108,-2.57667,9.57597,-0.68179,-2.35583,0.0201331,0.00204624,0.0288598,-24.5188,10.2269,5.70696,0.467195,0.558415,0.553268,0.404718
107,3106.01,5,84.0,32.5,-9.22023,2.75517,1.54764,-9.15236,2.81816,1.91476,-0.023767,-0.0236548,0.0242318,42.6811,-4.13182,-12.0992,0.496022,-0.580588,-0.254074,0.59357,36.8125,0.911092,9.76605,-0.824801,0.706969,9.75276,-0.433973,0.0346474,0.00289616,-0.0299571,0.906739,-40.4989,15.4561,0.537543,-0.594607,-0.417067,-0.428422,32.0,9.40269,-0.79767,-2.69325,9.54611,-0.681741,-2.31027,0.00903903,0.0551674,0.0206637,-24.2458,9.31165,5.56715,0.46733,0.558401,0.553133,0.404766
107,3106.02,5,84.0,32.5,-9.24678,2.64466,1.89401,-9.10715,2.81783,1.91471,0.0417235,-0.0109917,-0.0129416,42.444,-4.49199,-12.8839,0.496337,-0.580259,-0.253395,0.593919,36.8125,0.797892,9.76667,-0.788133,0.692114,9.76787,-0.418727,-0.0272487,0.0257614,0.00304928,1.30178,-40.7711,15.1784,0.537578,-0.594508,-0.417009,-0.428572,32.0,9.59111,-0.761208,-2.65296,9.51593,-0.727159,-2.34023,0.035001,0.0405137,0.0284719,-24.7614,9.85402,6.13204,0.46694,0.55895,0.55316,0.404421
107,3106.03,5,84.0,32.5,-9.25026,2.53017,1.81737,-9.12235,2.78775,1.92989,-0.0308271,-0.0218307,0.0041441,42.6922,-4.62916,-12.6212,0.496702,-0.579952,-0.253219,0.593989,36.8125,0.95045,9.80385,-0.78549,0.692756,9.79795,-0.34308,0.0147929,-0.0375602,-0.01979,1.18621,-41.0241,14.615,0.537718,-0.594566,-0.416956,-0.428367,32.0,9.51736,-0.761055,-2.61512,9.5309,-0.6818,-2.35559,0.0184219,-0.0225348,0.00578037,-24.1227,9.30426,5.1421,0.467424,0.5585,0.553095,0.404573
107,3106.04,5,84.0,32.5,-9.21835,2.64202,1.62503,-9.13856,2.69721,1.8848,-0.00536927,-0.0127916,0.0122888,42.3117,-3.74053,-13.1507,0.496777,-0.579795,-0.252597,0.594344,36.8125,0.795704,9.80381,-0.865735,0.707155,9.76783,-0.418818,-0.0157792,-0.034993,0.00758581,1.8276,-41.1771,14.9023,0.538303,-0.594449,-0.416808,-0.427938,32.0,9.51807,-0.837314,-2.57606,9.54612,-0.666616,-2.31031,-0.0273243,-0.0129616,-0.0107928,-24.2508,9.69898,5.85035,0.466854,0.558971,0.553151,0.404503
107,3106.05,5,84.0,32.5,-9.17548,2.60513,1.77975,-9.16896,2.68232,1.86977,-0.0047223,-0.0117331,0.0198518,42.812,-4.13935,-12.8868,0.49685,-0.579749,-0.252348,0.594434,36.8125,0.836106,9.8042,-0.787563,0.692024,9.76789,-0.433839,0.0140927,-0.0535048,-0.00435722,1.55155,-40.2644,15.1772,0.538495,-0.594597,-0.416639,-0.427656,32.0,9.43811,-0.759296,-2.77031,9.54586,-0.681815,-2.3708,0.0443629,0.0155728,0.00856923,-24.127,9.95071,5.99232,0.466398,0.559498,0.553167,0.404277
107,3106.06,5,84.0,32.5,-9.21862,2.79344,1.58603,-9.16858,2.71253,1.8848,-0.00847721,0.0273298,0.0135434,42.5511,-3.62859,-12.2332,0.496657,-0.580134,-0.253131,0.593886,36.8125,0.796449,9.65345,-0.826512,0.707245,9.76781,-0.403706,0.0245165,-0.043578,-0.0417819,1.56014,-40.5224,14.8968,0.53878,-0.594644,-0.416634,-0.427236,32.0,9.40489,-0.798312,-2.61605,9.56082,-0.68183,-2.38602,0.0235539,0.0309271,0.00708298,-24.5114,10.099,6.13263,0.465916,0.560035,0.553136,0.404133
107,3106.07,5,84.0,32.5,-9.25266,2.56744,1.74023,-9.18365,2.68246,1.91508,0.00608448,0.0295204,-0.00708567,42.5566,-3.87725,-12.4942,0.496485,-0.580336,-0.253417,0.593711,36.8125,0.79456,9.80355,-0.904476,0.707149,9.75272,-0.403749,0.0381986,-0.0378723,-0.0391614,1.6827,-40.2691,15.0372,0.539029,-0.594727,-0.416652,-0.42679,32.0,9.59371,-0.685913,-2.57622,9.51601,-0.681766,-2.32524,0.00703894,-0.00512478,0.000399516,-23.6215,9.66508,5.00161,0.466517,0.559417,0.553176,0.404241
107,3106.08,5,84.0,32.5,-9.29206,2.52945,1.70128,-9.18377,2.68245,1.89998,-0.0380742,-0.00171176,-0.0195334,42.9347,-4.0218,-12.8878,0.496578,-0.580145,-0.253384,0.593834,36.8125,0.912136,9.72866,-0.78594,0.72237,9.75264,-0.373616,0.00221317,-0.0266908,-0.02981,1.42826,-40.7759,15.3203,0.539095,-0.594794,-0.416569,-0.426692,32.0,9.66726,-0.724035,-2.61382,9.53091,-0.666675,-2.35564,0.0228034,0.0103028,-0.0222587,-24.3809,9.96379,6.13325,0.465884,0.559932,0.553329,0.404048
107,3106.09,5,84.0,32.5,-9.1409,2.71765,1.66442,-9.16807,2.72767,1.93007,0.018386,-0.0285702,0.00122689,42.5611,-4.12577,-12.6239,0.496598,-0.580089,-0.253215,0.593944,36.8125,0.875364,9.80435,-0.748131,0.737328,9.76774,-0.403887,0.0148577,-0.0244772,-0.0529197,1.04291,-40.3743,14.8923,0.53894,-0.594975,-0.41652,-0.426684,32.0,9.51646,-0.722765,-2.65396,9.51595,-0.681784,-2.34038,-0.0157374,-0.0238956,-0.00692611,-24.5145,10.0984,5.84896,0.465535,0.560211,0.553372,0.404005
107,3106.1,5,84.0,32.5,-9.25266,2.56744,1.74023,-9.21328,2.74309,1.91498,0.0231168,-0.0283708,-0.0246084,42.5722,-4.62311,-13.1459,0.497019,-0.579545,-0.252408,0.594467,36.8125,0.916811,9.76735,-0.631097,0.73788,9.79785,-0.343353,-0.0243026,-0.0169939,0.00844505,1.30644,-40.7709,14.8964,0.53901,-0.595025,-0.416284,-0.426756,32.0,9.66726,-0.724035,-2.61382,9.53097,-0.681781,-2.34045,0.0151172,0.0350934,-0.0102304,-24.2618,10.2145,5.84971,0.465342,0.560385,0.553315,0.404064
107,3106.11,5,84.0,32.5,-9.28992,2.64361,1.73941,-9.19846,2.72786,1.8999,0.02978,-0.00671863,-0.00209688,42.8103,-4.01516,-12.8876,0.496912,-0.579607,-0.252236,0.594568,36.8125,0.840482,9.72993,-0.632358,0.753029,9.84313,-0.373538,-0.0359776,0.00402443,-0.0145999,1.18978,-41.4113,14.7582,0.539096,-0.594988,-0.41612,-0.426859,32.0,9.51827,-0.799345,-2.57629,9.57604,-0.666646,-2.34074,-0.00317533,-0.00549078,0.00745885,-24.1274,9.82115,5.70881,0.465208,0.56053,0.553304,0.404033
107,3106.12,5,84.0,32.5,-9.3261,2.49281,1.81636,-9.18377,2.71263,1.86972,-0.0160148,0.0067346,0.029492,42.4356,-3.87106,-12.8877,0.497002,-0.579627,-0.252068,0.594545,36.8125,0.802467,9.76771,-0.63317,0.723132,9.85827,-0.358201,-0.0261296,0.0107239,-0.0196605,1.80685,-40.274,15.3201,0.539413,-0.594837,-0.416057,-0.426731,32.0,9.44311,-0.646675,-2.6166,9.54614,-0.590991,-2.31056,-0.008808,0.00522122,0.00281805,-24.3774,9.57612,5.70821,0.465166,0.560551,0.553253,0.404122
107,3106.13,5,84.0,32.5,-9.28617,2.60667,1.85506,-9.16857,2.72762,1.86967,-0.00071731,0.00905503,0.0130548,42.4289,-3.62224,-12.4955,0.49688,-0.579869,-0.252474,0.594238,36.8125,0.950549,9.8415,-0.78561,0.707539,9.8282,-0.418645,-0.0147751,-0.03659,0.00586896,0.659661,-40.8763,15.1745,0.538914,-0.595203,-0.415726,-0.427173,32.0,9.44051,-0.72197,-2.69334,9.5308,-0.621337,-2.38605,0.0101788,-0.0133729,-0.00045731,-24.7622,9.59489,5.56501,0.465418,0.560289,0.553203,0.404263
107,3106.14,5,84.0,32.5,-9.21461,2.60509,1.74067,-9.18276,2.80326,1.89972,-0.0243839,-0.0157154,0.00943925,43.0552,-3.90395,-12.6263,0.496873,-0.579952,-0.252783,0.594032,36.8125,0.914722,9.84214,-0.70882,0.707437,9.798,-0.403619,-0.000813784,0.000428673,-0.0327577,0.923919,-41.0148,14.8951,0.538705,-0.595315,-0.415676,-0.42733,32.0,9.48344,-0.723813,-2.49994,9.50093,-0.651538,-2.34039,0.0511065,0.04261,-0.0218813,-24.5141,9.71001,5.14025,0.466299,0.559373,0.553129,0.404619
107,3106.15,5,84.0,32.5,-9.21434,2.64302,1.74055,-9.15388,2.68221,1.86975,-0.0100358,-0.0239437,0.00518303,42.9392,-4.27032,-13.0175,0.497049,-0.579727,-0.252402,0.594266,36.8125,0.756246,9.72836,-0.904926,0.707899,9.82812,-0.358197,-0.0397473,0.0202332,-0.00696116,1.18891,-40.895,14.3323,0.538867,-0.595138,-0.415613,-0.427432,32.0,9.55279,-0.722681,-2.69218,9.5462,-0.621222,-2.29533,0.0278636,-0.0189808,-0.00912848,-24.4985,9.19551,5.5664,0.466395,0.559226,0.553162,0.404664
107,3106.16,5,84.0,32.5,-9.21809,2.67996,1.62491,-9.13818,2.74252,1.8847,-0.0444567,-0.0233073,0.0197948,42.4373,-3.99524,-12.8869,0.497299,-0.579527,-0.252222,0.594328,36.8125,0.721563,9.72926,-0.789394,0.707533,9.81309,-0.403576,0.0114494,0.00162678,-0.0130279,1.04844,-40.8905,15.0363,0.538653,-0.595255,-0.415582,-0.42757,32.0,9.55628,-0.685676,-2.5766,9.54595,-0.606172,-2.35591,0.0218714,-0.0449438,-0.0243548,-24.141,10.4655,5.70801,0.466018,0.559449,0.553319,0.404576
107,3106.17,5,84.0,32.5,-9.17468,2.71895,1.77937,-9.07777,2.74209,1.89974,0.0244959,-0.000698139,0.00722004,42.6865,-3.88463,-13.1506,0.497321,-0.579506,-0.251819,0.594502,36.8125,0.721862,9.84222,-0.789756,0.692204,9.76785,-0.403615,0.00277186,0.0102812,0.00158548,1.54885,-40.3936,15.46,0.538689,-0.595249,-0.415552,-0.427562,32.0,9.55648,-0.647708,-2.57684,9.54594,-0.621297,-2.35586,-0.0149764,-0.0032355,0.0255669,-23.9915,9.42813,5.70974,0.465791,0.559738,0.553312,0.404447
107,3106.18,5,84.0,32.5,-9.32771,2.6439,1.73885,-9.12336,2.69712,1.89989,-0.0167356,0.0287618,0.0101394,42.8141,-3.89171,-13.5445,0.497454,-0.579362,-0.251213,0.594787,36.8125,0.879641,9.69242,-0.592806,0.72255,9.7526,-0.343392,-0.0357759,-0.0266361,-0.000859096,1.17652,-41.1535,15.3207,0.538721,-0.595283,-0.415319,-0.427701,32.0,9.51536,-0.722444,-2.69256,9.54601,-0.606153,-2.34078,0.0311291,-0.0267997,0.0278305,-23.6169,9.6661,5.42712,0.465874,0.559748,0.553366,0.404265
107,3106.19,5,84.0,32.5,-9.09937,2.68042,1.78063,-9.06245,2.72692,1.94506,-0.0159112,-0.0469734,0.022746,42.1802,-3.60897,-12.4951,0.497491,-0.579416,-0.251584,0.594547,36.8125,0.842223,9.95611,-0.594341,0.723546,9.76748,-0.192229,-0.0250293,-0.00683325,-0.00521915,1.42347,-40.0015,14.8928,0.538913,-0.595178,-0.415205,-0.427716,32.0,9.51076,-0.759128,-2.84674,9.51613,-0.681729,-2.29497,-0.00138057,0.0237103,0.00852516,-24.4,10.348,5.13991,0.46654,0.559098,0.553387,0.404368
107,3106.2,5,84.0,32.5,-9.21434,2.64302,1.74055,-9.10792,2.69705,1.94518,-0.0309426,-0.0496155,0.027478,42.3157,-4.11294,-13.0172,0.497851,-0.579084,-0.25118,0.594739,36.8125,0.910147,9.8411,-0.863783,0.798621,9.88827,-0.343457,-0.0584899,-0.0344216,-0.0203115,1.44385,-41.0336,14.6168,0.539411,-0.595024,-0.41496,-0.427539,32.0,9.51697,-0.836992,-2.61466,9.48609,-0.681735,-2.29481,-0.000721788,-0.00808886,0.00113903,-24.1278,9.69158,5.42529,0.466647,0.558986,0.553361,0.404433
107,3106.21,5,84.0,32.5,-9.32102,2.64558,1.93138,-9.10804,2.69703,1.93008,-0.00794456,-0.011094,0.0148167,42.5599,-3.8777,-12.8879,0.497865,-0.579113,-0.251216,0.594684,36.8125,0.762065,9.76731,-0.711342,0.767986,9.85823,-0.40381,-0.0135197,0.000729366,0.0226567,1.30497,-41.2873,15.4633,0.539319,-0.595123,-0.414757,-0.427716,32.0,9.70509,-0.648335,-2.6139,9.57611,-0.636378,-2.32571,-0.00822884,-0.00440699,0.0153331,-23.8793,9.93626,5.28405,0.466834,0.558835,0.553322,0.404481
107,3106.22,5,84.0,32.5,-9.2114,2.68163,1.81744,-9.07778,2.68174,1.96028,-0.00574059,0.00901113,0.0146589,42.9263,-3.6488,-12.4963,0.497653,-0.579472,-0.251978,0.594189,36.8125,0.681161,9.72886,-0.867567,0.722574,9.81306,-0.403667,-0.0163824,0.0291859,-0.00211269,1.17602,-40.508,14.753,0.539249,-0.595083,-0.414715,-0.4279,32.0,9.55369,-0.760971,-2.65334,9.57611,-0.636378,-2.32571,0.0360348,-0.0037781,-0.00423797,-24.65,10.103,5.13931,0.467468,0.558162,0.553391,0.404582
107,3106.23,5,84.0,32.5,-9.213,2.64336,1.77905,-9.12388,2.60653,1.93029,-0.0484223,-0.0162186,0.00660226,42.8036,-3.51841,-12.8906,0.497726,-0.579419,-0.252323,0.594034,36.8125,0.832177,9.61516,-0.903182,0.691094,9.69253,-0.509615,0.0227326,0.070186,0.00107643,0.785281,-40.3648,14.8905,0.538611,-0.595221,-0.414823,-0.428406,32.0,9.66856,-0.686388,-2.57545,9.56076,-0.666724,-2.4012,0.0532008,-0.00171912,0.0163077,-24.3657,9.31973,6.27588,0.466774,0.558787,0.554143,0.403491
107,3106.24,5,84.0,32.5,-9.32958,2.56769,1.70059,-9.15313,2.71246,1.93009,-0.0373521,0.00418379,-0.0184981,42.1924,-4.10645,-13.1482,0.498032,-0.579031,-0.251944,0.594316,36.8125,0.763806,9.99349,-0.673325,0.766031,9.69242,-0.555405,-0.00750514,0.0176736,-0.0345092,1.3084,-40.9,14.8971,0.538751,-0.595171,-0.414838,-0.428284,32.0,9.54968,-0.683749,-2.80822,9.51589,-0.651553,-2.35561,0.0440845,-0.0201026,0.0145358,-24.5145,10.0984,5.84896,0.466584,0.559032,0.554265,0.403203
107,3106.25,5,84.0,32.5,-9.25561,2.71819,1.62421,-9.1834,2.68249,1.94529,-0.0158921,-0.0116803,-0.00118235,42.43,-3.62239,-12.6267,0.497921,-0.579141,-0.252346,0.594131,36.8125,0.871335,9.57765,-0.86363,0.738054,9.78269,-0.29806,-0.0478565,0.021571,-0.0295447,1.55978,-40.6515,15.0385,0.539119,-0.59489,-0.414815,-0.428235,32.0,9.62693,-0.646897,-2.73048,9.53098,-0.651531,-2.34055,0.000473007,-0.0243308,0.00571629,-24.5071,9.9705,6.27463,0.465778,0.55981,0.554446,0.402807
107,3106.26,5,84.0,32.5,-9.25454,2.68058,1.66284,-9.18314,2.75796,1.89982,-0.0401924,-0.0408106,-0.0107961,42.7999,-3.88979,-11.8385,0.497206,-0.579697,-0.253358,0.593757,36.8125,0.795405,9.69085,-0.865373,0.752243,9.67705,-0.328678,-0.0669173,-0.000349247,-0.00575178,0.918026,-40.6276,14.8929,0.539076,-0.594855,-0.414556,-0.428588,32.0,9.51736,-0.761055,-2.61512,9.5309,-0.696925,-2.35554,0.0138259,-0.00688444,0.00985374,-24.4,10.348,5.13991,0.46646,0.559121,0.554571,0.402802
107,3106.27,5,84.0,32.5,-9.21006,2.68197,1.85594,-9.12248,2.78774,1.91479,0.0110104,0.00668536,0.0106247,43.0558,-4.02799,-12.4943,0.497033,-0.579956,-0.253611,0.593541,36.8125,0.947565,9.57741,-0.862248,0.722155,9.662,-0.313427,-0.0589142,-0.00975263,0.0111989,1.42543,-40.1305,14.8936,0.53936,-0.594727,-0.414305,-0.428653,32.0,9.55569,-0.799582,-2.5759,9.54594,-0.621297,-2.35586,0.0146231,-0.0331535,-0.0108717,-24.5161,10.098,5.70712,0.466321,0.559158,0.554717,0.402711
107,3106.28,5,84.0,32.5,-9.13448,2.68139,1.85708,-9.15198,2.84837,1.92979,-0.0255943,-0.0245039,-0.00506543,42.9314,-4.02136,-12.4941,0.497045,-0.579957,-0.253876,0.593416,36.8125,0.79466,9.8412,-0.904596,0.706129,9.67738,-0.494637,-0.0133051,-0.013074,0.016997,1.4555,-41.0333,13.9119,0.539823,-0.594532,-0.414287,-0.428357,32.0,9.58982,-0.798856,-2.69133,9.53099,-0.606156,-2.3407,0.00171609,-0.0114629,-0.00203715,-24.6457,9.97448,5.28131,0.466764,0.558671,0.554669,0.402939
107,3106.29,5,84.0,32.5,-9.06318,2.64186,1.74282,-9.06219,2.7873,1.91473,-0.0399045,-0.0516377,0.0206109,42.188,-3.85793,-13.0185,0.497482,-0.57954,-0.253348,0.593684,36.8125,0.804954,9.84353,-0.555929,0.76669,9.76785,-0.524965,-0.0239751,0.0084627,0.0067683,0.285732,-41.3781,14.8927,0.539082,-0.594971,-0.413921,-0.429034,32.0,9.62674,-0.684866,-2.73025,9.54588,-0.60619,-2.37105,0.0236259,0.00439548,0.032042,-24.2618,10.2145,5.84971,0.466547,0.559028,0.554629,0.402751
107,3106.3,5,84.0,32.5,-9.29259,2.64294,1.6624,-9.04687,2.78722,1.94492,-0.0604136,-0.028314,0.0302875,42.4362,-3.9951,-12.7557,0.497893,-0.579287,-0.253291,0.59361,36.8125,0.796848,9.80406,-0.826994,0.797583,9.76759,-0.389139,-0.00703327,0.00993068,0.0155175,1.56297,-41.1678,15.3235,0.539266,-0.594977,-0.413767,-0.428942,32.0,9.51536,-0.722444,-2.69256,9.53104,-0.651513,-2.32542,0.000350287,-0.0305296,0.0316532,-24.1321,9.82012,5.2833,0.466873,0.558818,0.554538,0.402791
107,3106.31,5,84.0,32.5,-9.32798,2.79532,1.69984,-9.07752,2.72703,1.94508,-0.019474,0.0216222,0.0257495,42.319,-4.36131,-13.0157,0.498391,-0.578979,-0.252804,0.5937,36.8125,0.83705,9.72916,-0.748581,0.798219,9.78255,-0.298424,0.0264767,0.0387816,-0.0226936,1.5718,-40.5221,14.1918,0.53958,-0.594771,-0.413971,-0.428636,32.0,9.55309,-0.874877,-2.65264,9.54593,-0.666671,-2.35572,0.0178128,0.0108789,0.012394,-23.9993,9.94434,5.99278,0.466378,0.559363,0.554595,0.402528
107,3106.32,5,84.0,32.5,-9.2524,2.60538,1.74011,-9.15338,2.69735,1.91502,-0.0237152,0.00584959,0.00262376,41.8232,-4.21102,-13.4093,0.498832,-0.578472,-0.251825,0.59424,36.8125,0.92626,9.88238,-0.321532,0.753275,9.78261,-0.267927,-0.0011296,0.0651635,-0.0659048,1.82011,-40.5318,14.7576,0.540013,-0.594388,-0.414269,-0.428333,32.0,9.59712,-0.877041,-2.42064,9.51564,-0.636502,-2.4162,0.0222178,0.0445192,-0.0164252,-24.5055,9.45293,5.42424,0.466831,0.558881,0.554431,0.402898
107,3106.33,5,84.0,32.5,-9.29233,2.68088,1.66228,-9.16832,2.71256,1.915,-0.0444713,-0.0126127,0.0134551,42.6815,-3.76,-12.7576,0.498851,-0.578522,-0.252209,0.594013,36.8125,0.884415,9.76876,-0.438084,0.693757,9.82794,-0.206986,-0.0306204,0.0547893,-0.0458941,0.919991,-40.7567,14.8936,0.539814,-0.594183,-0.414415,-0.428728,32.0,9.59092,-0.799177,-2.65272,9.51582,-0.681822,-2.37065,0.0394793,0.0744045,0.0217119,-24.252,9.8282,5.99203,0.466661,0.559186,0.554426,0.40268
107,3106.34,5,84.0,32.5,-9.36496,2.72007,1.73803,-9.18226,2.77314,1.99039,-0.0169911,-0.0411361,-0.00716118,42.5555,-3.62918,-12.7582,0.498868,-0.578475,-0.252514,0.593915,36.8125,0.809529,9.84457,-0.400966,0.634054,9.8582,-0.1612,-0.0368035,0.0373139,-0.035547,1.43832,-40.5174,14.4729,0.540098,-0.593793,-0.414574,-0.428757,32.0,9.48363,-0.685845,-2.50017,9.51614,-0.666604,-2.29502,0.0254063,0.00749213,0.0241983,-24.5075,9.84094,5.99111,0.466395,0.559548,0.554485,0.402403
107,3106.35,5,84.0,32.5,-9.21996,2.60374,1.58665,-9.15236,2.80307,1.92989,-0.00964355,0.0150049,-0.0378412,42.5617,-4.24981,-12.492,0.498585,-0.57864,-0.252899,0.593828,36.8125,0.801722,9.91806,-0.672393,0.633886,9.88847,-0.221561,0.0320082,0.0643575,-0.0289448,1.30571,-41.0291,15.1799,0.539877,-0.59365,-0.414902,-0.428917,32.0,9.59202,-0.799498,-2.61412,9.59105,-0.681768,-2.34077,-0.0024196,0.0151514,0.0383762,-24.5145,10.0984,5.84896,0.466292,0.559828,0.554344,0.402327
107,3106.36,5,84.0,32.5,-9.17656,2.83209,1.70199,-9.1378,2.75764,1.91487,0.00426639,-0.0230821,-0.00295834,42.8119,-3.89142,-13.282,0.49867,-0.578473,-0.252478,0.594098,36.8125,0.686979,9.76781,-0.673983,0.632962,9.82823,-0.312406,-0.00697971,0.0175229,-0.028103,1.45207,-41.4207,14.4781,0.540146,-0.593398,-0.415062,-0.42877,32.0,9.51375,-0.607896,-2.77047,9.60616,-0.606121,-2.32596,0.0089397,-0.00089445,0.0209254,-23.993,9.42779,5.5679,0.466363,0.559832,0.554267,0.402346
107,3106.37,5,84.0,32.5,-9.25267,2.7568,1.7011,-9.12235,2.80284,1.91476,-0.0327402,-0.0390022,-0.0106404,42.9335,-3.77372,-13.1518,0.498794,-0.578274,-0.252441,0.594203,36.8125,0.760921,9.76705,-0.750083,0.631882,9.82848,-0.49375,0.00296767,0.0124765,-0.0218555,1.95322,-40.6655,14.6183,0.540701,-0.593175,-0.415175,-0.428271,32.0,9.54999,-0.835945,-2.76868,9.50081,-0.651575,-2.37066,-0.00719901,0.0308981,-0.0205691,-24.6376,9.58784,5.28179,0.466917,0.559229,0.554006,0.4029
107,3106.38,5,84.0,32.5,-9.24892,2.71987,1.81675,-9.15186,2.81821,1.97516,-0.0348153,-0.0303195,0.00214679,42.6937,-4.25748,-13.4108,0.499271,-0.577794,-0.251906,0.594496,36.8125,0.722906,9.80482,-0.750894,0.64699,9.76797,-0.418454,-0.0219856,0.0212675,-0.0144467,0.922321,-40.7566,14.7526,0.540377,-0.593225,-0.415127,-0.428657,32.0,9.63023,-0.647861,-2.61467,9.54606,-0.651509,-2.3255,0.0110664,-0.0125558,0.00270364,-24.3778,9.44656,5.4247,0.467157,0.559003,0.553918,0.403057
107,3106.39,5,84.0,32.5,-9.28404,2.72083,1.89319,-9.13742,2.77277,1.94504,-0.0218692,-0.0329446,0.0197787,42.0704,-4.59597,-12.6201,0.499459,-0.577659,-0.251769,0.594528,36.8125,0.83715,9.76681,-0.748701,0.677246,9.75274,-0.373343,-0.0414926,0.0222858,-0.0245491,1.44151,-41.0337,14.7578,0.540592,-0.593016,-0.415116,-0.428687,32.0,9.47644,-0.797823,-2.73109,9.5612,-0.696844,-2.29516,-0.0146222,-0.018689,0.0254229,-24.627,9.46066,5.99113,0.466734,0.559469,0.554045,0.402726
107,3106.4,5,84.0,32.5,-9.1696,2.68235,1.93352,-9.19707,2.84871,1.94494,-0.0500162,-0.000527851,0.0304847,42.6893,-4.25689,-12.8859,0.499658,-0.577638,-0.251856,0.594344,36.8125,0.801124,9.69214,-0.671669,0.677234,9.72252,-0.343206,-0.0312922,-0.00792765,-0.028798,1.44887,-40.9044,14.1931,0.54096,-0.592821,-0.415092,-0.428515,32.0,9.62953,-0.571602,-2.65374,9.53097,-0.681781,-2.34045,-0.0120328,-0.0150435,-0.00289465,-23.4813,9.66144,6.13676,0.465742,0.560412,0.55412,0.40246
107,3106.41,5,84.0,32.5,-9.16613,2.79684,2.01016,-9.1668,2.84851,1.96001,-0.0333726,-0.00436638,0.0322494,42.5632,-3.87814,-13.2816,0.499919,-0.577525,-0.251604,0.594342,36.8125,0.722607,9.69186,-0.750533,0.677408,9.70736,-0.297913,-0.0146468,-0.0104075,-0.0264741,1.05347,-40.7613,14.6126,0.540855,-0.592868,-0.41501,-0.42866,32.0,9.43712,-0.949139,-2.76914,9.5008,-0.6667,-2.37061,0.00194609,-0.00345282,-0.0114143,-24.5098,9.58147,5.28224,0.466279,0.559844,0.553977,0.402825
107,3106.42,5,84.0,32.5,-9.21541,2.68063,1.70192,-9.13679,2.8181,1.97514,-0.0163554,-0.00701383,0.0165098,42.8126,-4.26338,-12.7548,0.49988,-0.577659,-0.251829,0.594149,36.8125,0.759777,9.76679,-0.788824,0.646588,9.66226,-0.373421,-0.0029984,-0.0487369,-0.0340936,1.3138,-40.6417,14.3317,0.541061,-0.592912,-0.414922,-0.428426,32.0,9.70638,-0.610688,-2.57553,9.53106,-0.575888,-2.32566,0.00400362,0.00709255,-0.00658354,-24.518,9.96811,5.28177,0.46674,0.559315,0.553969,0.403038
107,3106.43,5,84.0,32.5,-9.13368,2.7952,1.85671,-9.0608,2.89306,1.9749,-0.0354223,-0.0369776,0.0336766,42.8115,-4.26324,-12.6236,0.499977,-0.577729,-0.252084,0.59389,36.8125,0.798936,9.72928,-0.749271,0.662307,9.78298,-0.388278,-0.0115149,0.000456654,-0.0348843,1.95482,-40.9237,14.7608,0.54159,-0.592712,-0.414954,-0.428001,32.0,9.55589,-0.761613,-2.57614,9.56076,-0.681849,-2.40115,-0.0181138,-0.0463667,0.0101871,-23.8828,10.3239,5.70909,0.466296,0.559764,0.55396,0.40294
107,3106.44,5,84.0,32.5,-9.17602,2.71861,1.74087,-9.07625,2.89313,1.92961,-0.0583927,-0.0474102,0.063957,42.8119,-3.89142,-13.282,0.500453,-0.577505,-0.251797,0.593829,36.8125,0.87974,9.73007,-0.592926,0.676964,9.72258,-0.388542,-0.00962857,-0.0204913,-0.0156752,2.08596,-40.9284,14.6207,0.54221,-0.592576,-0.414872,-0.427486,32.0,9.59391,-0.647945,-2.57645,9.53071,-0.681855,-2.40099,-0.0094002,-0.0387504,-0.00704874,-23.9915,9.42813,5.70974,0.465991,0.559964,0.554133,0.402776
107,3106.45,5,84.0,32.5,-9.21407,2.68096,1.74042,-9.03105,2.80228,2.02037,-0.0127482,0.0111676,0.0664441,42.3069,-4.11176,-11.9674,0.5001,-0.578194,-0.252604,0.593113,36.8125,0.877752,9.84252,-0.67077,0.67742,9.73759,-0.32805,-0.00467857,0.00267958,-0.0242863,0.920357,-40.6276,14.7519,0.541801,-0.592732,-0.41481,-0.427847,32.0,9.47365,-0.911086,-2.80759,9.53117,-0.621226,-2.29525,-0.00111132,-0.020256,0.00181164,-23.868,9.5503,5.5682,0.46591,0.560014,0.554145,0.402785
107,3106.46,5,84.0,32.5,-9.16826,2.68268,1.97203,-9.03105,2.78719,2.03551,-0.0197266,-0.0191379,0.0637034,42.5566,-3.87725,-12.4942,0.500285,-0.578364,-0.252987,0.592627,36.8125,0.760921,9.76705,-0.750083,0.662103,9.72257,-0.358227,0.0123416,0.00630157,-0.00262714,1.03163,-40.2455,15.4555,0.541232,-0.592861,-0.414872,-0.428329,32.0,9.59521,-0.610297,-2.53808,9.53112,-0.590994,-2.31048,0.0035175,0.0423712,0.0213169,-24.6227,9.33212,6.13313,0.465624,0.560324,0.554274,0.402507
107,3106.47,5,84.0,32.5,-9.2122,2.56782,1.81781,-9.0622,2.71186,1.9904,0.0000685647,-0.0177808,0.069855,42.6904,-4.25704,-13.0171,0.500641,-0.578271,-0.25253,0.592612,36.8125,0.801423,9.8051,-0.672031,0.67715,9.73765,-0.373386,-0.0252288,-0.0360088,0.0150216,1.17406,-40.379,14.7522,0.541138,-0.593016,-0.41459,-0.428506,32.0,9.66817,-0.762325,-2.57498,9.51617,-0.545604,-2.29541,0.0160205,-0.015424,-0.0193669,-24.3868,10.092,5.84941,0.465378,0.560431,0.554372,0.402508
107,3106.48,5,84.0,32.5,-9.24465,2.75881,1.93214,-9.09259,2.75732,1.91483,-0.00456926,-0.0478576,0.073837,42.5672,-4.25055,-13.1481,0.501025,-0.57809,-0.251864,0.592749,36.8125,0.884315,9.73111,-0.437963,0.677684,9.72241,-0.267646,-0.0121106,0.0431461,-0.0372923,1.3127,-41.029,14.7569,0.541123,-0.592846,-0.414722,-0.428632,32.0,9.44201,-0.646354,-2.6552,9.51608,-0.666622,-2.31015,-0.0118367,-0.010039,0.00896888,-24.3969,10.3487,5.42358,0.465677,0.560127,0.554388,0.402561
107,3106.49,5,84.0,32.5,-9.13956,2.52862,1.74205,-9.12298,2.74242,1.89979,-0.0102797,-0.0365919,0.0615922,41.6861,-3.83079,-12.4927,0.501125,-0.578209,-0.251918,0.592524,36.8125,0.842024,9.88081,-0.5941,0.677588,9.70732,-0.267689,-0.00935827,0.0323277,-0.0302965,1.04524,-40.3743,14.7513,0.540876,-0.592802,-0.414791,-0.428937,32.0,9.70179,-0.647371,-2.72971,9.53083,-0.712068,-2.37063,-0.0496679,0.00735981,-0.0090855,-23.9923,9.16901,5.14271,0.466176,0.559646,0.553948,0.403258
107,3106.5,5,84.0,32.5,-9.10498,2.64114,1.62673,-9.12324,2.71222,1.89986,-0.0072616,0.00654504,0.0471478,42.1947,-4.35467,-13.0155,0.501358,-0.578135,-0.251449,0.592598,36.8125,0.84088,9.88055,-0.63284,0.677606,9.75266,-0.312895,-0.0146743,-0.0049361,-0.0151719,1.56261,-41.2969,15.4652,0.54098,-0.592754,-0.414735,-0.428927,32.0,9.55809,-0.762256,-2.49893,9.51563,-0.681877,-2.41605,0.0248454,0.0186276,0.00145687,-23.9973,9.55633,5.42591,0.466468,0.559369,0.553951,0.403302
107,3106.51,5,84.0,32.5,-9.25106,2.60571,1.77861,-9.07866,2.63638,1.89998,-0.0118516,-0.00716338,0.0382893,42.5629,-4.49789,-12.228,0.500861,-0.578664,-0.251922,0.592302,36.8125,0.993538,9.95538,-0.630318,0.737694,9.78277,-0.358508,-0.0162968,-0.0264304,-0.042437,1.44188,-40.9046,14.6161,0.541255,-0.592718,-0.414654,-0.42871,32.0,9.59151,-0.685271,-2.65342,9.546,-0.651528,-2.34063,0.0323759,0.0157485,-0.0135173,-24.5207,10.097,5.28161,0.466998,0.558766,0.554035,0.403409
107,3106.52,5,84.0,32.5,-9.25186,2.68126,1.73986,-9.10804,2.68195,1.94521,0.0101681,0.00011384,0.0154151,42.6904,-4.00911,-13.4123,0.500898,-0.578576,-0.251314,0.592615,36.8125,0.833918,9.84134,-0.865165,0.707911,9.85835,-0.388334,0.0149952,0.0164801,-0.0513637,1.69006,-40.1398,14.4725,0.541535,-0.592584,-0.414816,-0.428383,32.0,9.55279,-0.722681,-2.69218,9.56078,-0.606224,-2.4014,-0.00657418,-0.00246191,-0.0224558,-24.2575,10.086,5.99171,0.466382,0.559237,0.554122,0.403349
107,3106.53,5,84.0,32.5,-9.2942,2.60466,1.62402,-9.12299,2.71224,1.93006,-0.0102332,-0.0128302,0.0439767,42.4329,-3.99465,-12.362,0.500757,-0.5789,-0.251832,0.592197,36.8125,0.877253,9.65425,-0.670167,0.722946,9.8432,-0.373356,0.0149187,0.0185569,-0.0352075,1.45157,-40.7753,13.9104,0.541734,-0.592467,-0.414957,-0.428156,32.0,9.47994,-0.760818,-2.61551,9.53093,-0.59105,-2.35588,0.0137332,0.0145195,0.0336864,-24.7598,9.33645,5.28165,0.467033,0.558804,0.553693,0.403785
107,3106.54,5,84.0,32.5,-9.2524,2.60538,1.74011,-9.12159,2.83309,1.97509,-0.0377407,-0.0191643,0.0141671,42.4424,-4.61573,-12.4895,0.500862,-0.578865,-0.251987,0.592077,36.8125,0.839238,9.69202,-0.670978,0.737964,9.78271,-0.313172,0.000574669,0.0175763,-0.0296896,1.43562,-40.6466,14.7556,0.541735,-0.592447,-0.414973,-0.428167,32.0,9.55349,-0.79894,-2.65311,9.56108,-0.666631,-2.32553,0.0648217,-0.0653697,0.0291329,-24.1196,9.30494,5.42577,0.467233,0.558721,0.553818,0.403497
107,3106.55,5,84.0,32.5,-9.28965,2.68155,1.73929,-9.12235,2.77266,1.94503,-0.0135825,-0.0155207,0.00958661,42.0647,-3.85144,-13.1495,0.500975,-0.578708,-0.251558,0.592317,36.8125,1.03145,9.87995,-0.629386,0.723006,9.76761,-0.282901,-0.0212669,0.00983043,-0.0161233,1.43759,-40.7756,14.7563,0.541797,-0.592394,-0.414895,-0.428239,32.0,9.48414,-0.800072,-2.46087,9.56125,-0.71195,-2.27998,0.0288257,0.00959096,0.00532129,-24.1305,9.82046,5.42513,0.467446,0.558554,0.553805,0.403499
107,3106.56,5,84.0,32.5,-9.21461,2.79445,1.70155,-9.16743,2.81827,1.91477,-0.0310473,-0.0305989,0.0197345,41.9416,-4.34081,-12.4901,0.501045,-0.578682,-0.251617,0.592258,36.8125,0.881083,9.80564,-0.554427,0.722814,9.73742,-0.282987,0.021562,0.0434492,-0.0125015,1.32312,-40.6414,13.7677,0.541792,-0.592325,-0.415019,-0.42822,32.0,9.47274,-0.872796,-2.84643,9.546,-0.636403,-2.34068,-0.013289,-0.0279562,0.000919641,-24.8942,9.7298,5.42255,0.467649,0.558322,0.553743,0.40367
107,3106.57,5,84.0,32.5,-9.21595,2.79411,1.66304,-9.13793,2.72745,1.93004,-0.0169118,-0.0188589,0.0119422,42.8025,-3.51827,-12.7593,0.501079,-0.578765,-0.25217,0.591913,36.8125,0.764352,9.76783,-0.63386,0.678272,9.8432,-0.297524,-0.0413481,0.0189878,-0.0237528,1.30681,-40.6418,14.7547,0.541788,-0.592199,-0.414972,-0.428444,32.0,9.66597,-0.761682,-2.65219,9.56102,-0.6364,-2.34076,0.0156676,0.0246445,0.00148914,-24.0016,9.68487,5.28391,0.467948,0.558025,0.553711,0.403778
107,3106.58,5,84.0,32.5,-9.36523,2.68213,1.73816,-9.16807,2.74276,1.91494,-0.0388329,-0.0106505,0.0202768,42.8031,-3.64231,-12.6274,0.501107,-0.57889,-0.252769,0.591511,36.8125,0.687625,9.5798,-0.634639,0.677498,9.70734,-0.282801,-0.0123074,-0.00458109,-0.0299519,1.83532,-40.9187,14.1959,0.542301,-0.591959,-0.415023,-0.428078,32.0,9.44011,-0.797907,-2.69287,9.51596,-0.63641,-2.34052,0.091437,-0.00256324,-0.0088072,-24.5149,9.96879,5.56544,0.468127,0.557809,0.553953,0.403538
107,3106.59,5,84.0,32.5,-9.13502,2.60551,1.85733,-9.15224,2.788,1.96012,-0.0588861,0.0145862,0.00829564,42.8027,-4.01413,-11.9689,0.500719,-0.579388,-0.253883,0.590875,36.8125,0.996372,9.73024,-0.513372,0.707767,9.72234,-0.267827,0.011053,0.000173908,0.013663,1.69558,-40.656,14.6164,0.542406,-0.592008,-0.414915,-0.427981,32.0,9.62513,-0.570317,-2.80815,9.53085,-0.636443,-2.37087,0.0154126,-0.00806112,-0.0169362,-24.2442,9.31199,5.70899,0.46786,0.55793,0.554216,0.403319
107,3106.6,5,84.0,32.5,-9.17655,2.64273,1.74112,-9.19796,2.75809,1.93003,-0.0507228,0.0132692,0.0158801,42.922,-3.64821,-11.9714,0.500516,-0.579811,-0.25509,0.590112,36.8125,0.802068,9.61709,-0.632687,0.73776,9.7223,-0.283121,-0.00850027,0.0226624,-0.00291838,1.04488,-40.5034,14.8931,0.541999,-0.592123,-0.414833,-0.428418,32.0,9.59301,-0.609655,-2.61529,9.51608,-0.666622,-2.31015,-0.00246031,-0.0095978,0.00584674,-24.3856,9.96277,5.70774,0.467606,0.558187,0.554224,0.403247
107,3106.61,5,84.0,32.5,-9.28671,2.5308,1.8553,-9.15313,2.65211,1.99062,-0.0450134,0.00262815,-0.00945676,42.8209,-4.38846,-13.5415,0.501149,-0.579053,-0.254088,0.590751,36.8125,0.880984,9.76799,-0.554306,0.72264,9.75258,-0.32828,-0.0189684,0.0569551,0.00216119,1.58555,-41.4253,14.197,0.542187,-0.591893,-0.414891,-0.428441,32.0,9.55349,-0.79894,-2.65311,9.56119,-0.711969,-2.29511,0.0011605,-0.0017542,-0.00746173,-24.7731,10.1104,5.56437,0.467672,0.558083,0.554227,0.403311
107,3106.62,5,84.0,32.5,-9.36443,2.60659,1.77691,-9.13819,2.65199,1.97551,-0.0128417,-0.00287947,0.0425927,42.5672,-4.25055,-13.1481,0.501557,-0.578759,-0.253416,0.590981,36.8125,0.841526,9.69254,-0.593497,0.767404,9.75256,-0.389,0.00971286,-0.00431165,-0.00476701,1.83226,-41.1769,14.6204,0.542496,-0.591917,-0.414787,-0.428118,32.0,9.59501,-0.648266,-2.53785,9.57603,-0.696896,-2.34065,-0.0147321,-0.0212315,0.0159459,-23.9946,9.42745,5.42607,0.467665,0.558136,0.554182,0.403308
107,3106.63,5,84.0,32.5,-9.28858,2.45458,1.81705,-9.15338,2.68226,1.93015,-0.00312754,0.0140362,0.0432656,43.064,-4.15307,-13.281,0.501756,-0.578692,-0.252918,0.591091,36.8125,0.952937,9.87967,-0.708249,0.722646,9.76769,-0.343349,0.00823349,0.0328474,-0.0506844,1.57842,-40.651,13.9106,0.542734,-0.591735,-0.414969,-0.42789,32.0,9.55499,-0.723324,-2.61497,9.56076,-0.681849,-2.40115,-0.0177451,-0.0357157,0.0189531,-24.1001,8.53234,5.7104,0.467374,0.558395,0.554456,0.402908
107,3106.64,5,84.0,32.5,-9.28697,2.49286,1.85543,-9.10817,2.69702,1.91498,-0.0322927,-0.0565926,0.0180435,42.5667,-4.37444,-12.8849,0.502002,-0.578404,-0.252643,0.591281,36.8125,0.801124,9.69214,-0.671669,0.737298,9.69217,-0.328544,-0.00950693,0.0292961,-0.0407757,1.95948,-40.9236,14.4788,0.543155,-0.591524,-0.415036,-0.427583,32.0,9.47824,-0.874403,-2.65341,9.54586,-0.69694,-2.37076,0.0283931,0.0226092,0.00544224,-24.5145,10.0984,5.84896,0.467197,0.558627,0.554435,0.402821
107,3106.65,5,84.0,32.5,-9.20819,2.56882,1.93333,-9.09348,2.63652,1.93019,-0.00997371,-0.0115012,0.031489,42.4373,-3.99524,-12.8869,0.502067,-0.578404,-0.252526,0.591277,36.8125,0.726983,9.61759,-0.595328,0.707401,9.70731,-0.313207,-0.0225733,0.021817,-0.00308124,1.57573,-40.7801,14.1933,0.543288,-0.591444,-0.414947,-0.427611,32.0,9.51866,-0.723408,-2.57676,9.54587,-0.651565,-2.3709,0.0380936,0.0335493,-0.00230702,-24.0001,9.68521,5.42575,0.467464,0.558361,0.554457,0.402851
107,3106.66,5,84.0,32.5,-9.2556,2.52883,1.66334,-9.10767,2.6669,2.00565,-0.0488778,-0.0249003,-0.00454672,42.6899,-4.133,-13.1491,0.502308,-0.578074,-0.25237,0.591461,36.8125,0.772259,9.73199,-0.362554,0.707485,9.69218,-0.283026,-0.00887505,-0.0268558,-0.0238212,2.09026,-41.0574,14.4805,0.54384,-0.591348,-0.414832,-0.427154,32.0,9.39789,-0.872322,-2.8472,9.53109,-0.681744,-2.31019,-0.028111,0.0126209,0.0209546,-24.2618,10.2145,5.84971,0.467046,0.558888,0.554234,0.40291
107,3106.67,5,84.0,32.5,-9.17254,2.64374,1.85663,-9.07803,2.68172,1.93008,-0.0396001,-0.012385,0.0185396,43.0651,-4.15321,-13.4122,0.502547,-0.577836,-0.252025,0.591638,36.8125,0.760821,9.7294,-0.749962,0.69254,9.7073,-0.282892,-0.00927923,0.0252142,-0.00687849,1.43905,-40.2592,14.1894,0.543755,-0.591357,-0.414772,-0.427308,32.0,9.59221,-0.761529,-2.61435,9.56088,-0.712062,-2.37079,0.00550833,-0.0276442,0.0159391,-24.8782,9.34486,6.13222,0.466568,0.559335,0.554594,0.402349
107,3106.68,5,84.0,32.5,-9.29019,2.60567,1.73954,-9.09285,2.66676,1.97543,-0.0220027,0.00499679,0.000947407,42.3196,-4.23742,-13.2789,0.502768,-0.577569,-0.251595,0.591895,36.8125,0.763009,9.69226,-0.67236,0.677318,9.70738,-0.313025,0.0353352,-0.0186667,-0.0195065,1.57449,-40.3929,13.9091,0.543835,-0.591472,-0.414763,-0.427055,32.0,9.54799,-0.797333,-2.84612,9.54586,-0.681815,-2.3708,0.0286246,0.000956961,0.0312352,-24.7567,9.33713,5.56532,0.46695,0.559128,0.554428,0.402421
107,3106.69,5,84.0,32.5,-9.17468,2.71895,1.77937,-9.13667,2.75776,2.05078,-0.0403852,-0.0257941,-0.011985,42.1824,-3.60926,-12.7575,0.502837,-0.57749,-0.252114,0.591691,36.8125,0.763109,9.72991,-0.672481,0.661827,9.70752,-0.388494,0.00548961,0.0242917,-0.0358565,1.826,-40.9189,14.7598,0.543952,-0.591403,-0.414846,-0.426921,32.0,9.66616,-0.723714,-2.65242,9.59104,-0.727143,-2.34063,-0.00129033,-0.000591801,0.0153871,-24.8868,9.60194,5.84822,0.466872,0.559269,0.554401,0.402353
107,3106.7,5,84.0,32.5,-9.17067,2.53059,1.93402,-9.12248,2.72739,1.97533,0.00243799,-0.0122336,-0.00263201,42.197,-4.6029,-12.8828,0.502986,-0.57731,-0.25187,0.591844,36.8125,0.683249,9.65407,-0.789844,0.662295,9.75276,-0.35814,-0.0113241,0.0191048,-0.0260416,1.82906,-40.6607,14.3354,0.544186,-0.591277,-0.414865,-0.426779,32.0,9.59701,-0.686877,-2.46041,9.54605,-0.696884,-2.32535,-0.0051139,0.0140375,0.00369819,-23.9845,9.17071,5.8519,0.466537,0.559585,0.554487,0.402183
107,3106.71,5,84.0,32.5,-9.32931,2.60563,1.70046,-9.10779,2.69706,1.96028,-0.00833724,0.0187497,-0.0243337,42.3302,-4.85865,-13.5377,0.503577,-0.576678,-0.251123,0.592276,36.8125,0.684692,9.76729,-0.751465,0.69236,9.70735,-0.313116,0.0391455,0.0313095,-0.0522554,2.0813,-40.9285,14.9027,0.544353,-0.591223,-0.415058,-0.426454,32.0,9.66216,-0.646492,-2.8073,9.50076,-0.606219,-2.38594,-0.0225701,-0.0505146,-0.0111324,-24.6524,9.84356,4.43045,0.467847,0.558082,0.554703,0.402453
107,3106.72,5,84.0,32.5,-9.21033,2.64403,1.85607,-9.09246,2.74224,1.94506,-0.0301697,-0.0135909,-0.0306764,42.0664,-3.97562,-13.1488,0.503554,-0.576517,-0.251113,0.592456,36.8125,0.875165,9.72904,-0.74789,0.692078,9.67718,-0.328314,0.0153928,0.0314313,-0.0594964,1.44028,-40.6465,14.4736,0.544176,-0.591248,-0.415191,-0.426515,32.0,9.36396,-0.83508,-2.73201,9.50102,-0.560769,-2.32555,0.034678,0.00540864,0.0131749,-24.1301,9.95003,5.70865,0.467695,0.558281,0.554711,0.402342
107,3106.73,5,84.0,32.5,-9.32343,2.68285,1.85424,-9.12236,2.71231,2.00556,-0.0461924,-0.00455573,-0.026416,42.9398,-4.64229,-12.4903,0.502998,-0.576867,-0.25183,0.592283,36.8125,0.793217,9.72798,-0.942976,0.67733,9.73761,-0.343162,0.0223503,-0.0012591,-0.0286844,2.09885,-41.3153,14.2,0.544595,-0.591132,-0.415278,-0.426055,32.0,9.51776,-0.685118,-2.61559,9.50105,-0.666626,-2.31007,-0.00333201,0.0395823,0.0401784,-24.5235,10.2259,5.28145,0.468239,0.557908,0.554567,0.402426
107,3106.74,5,84.0,32.5,-9.31969,2.64591,1.96988,-9.12236,2.71231,2.00556,-0.00692105,0.00491637,-0.0414737,42.8109,-4.1392,-12.7556,0.502689,-0.577019,-0.252387,0.59216,36.8125,0.798936,9.72928,-0.749271,0.617255,9.73772,-0.327687,0.0215258,0.0134953,-0.0286156,2.07737,-40.6704,14.9012,0.544726,-0.591105,-0.415359,-0.425846,32.0,9.51956,-0.761698,-2.53792,9.57599,-0.62129,-2.35602,0.00781405,-0.00685918,-0.00670435,-24.2473,9.31131,5.42531,0.468344,0.55774,0.554577,0.402523
107,3106.75,5,84.0,32.5,-9.13021,2.72033,1.97247,-9.16693,2.77306,2.02057,-0.035054,-0.00621313,-0.00292732,42.5577,-3.62947,-13.0206,0.502778,-0.576968,-0.252699,0.592001,36.8125,0.613982,9.69351,-0.558901,0.632278,9.69235,-0.282572,0.00494678,0.021906,-0.039028,1.83802,-40.7895,13.9132,0.544949,-0.59094,-0.415493,-0.42566,32.0,9.66306,-0.684781,-2.76846,9.54599,-0.681778,-2.34053,0.0194388,-0.0422741,-0.0117323,-23.995,9.8158,6.13478,0.467385,0.558628,0.554778,0.40213
107,3106.76,5,84.0,32.5,-9.21407,2.68096,1.74042,-9.12185,2.77272,2.00543,-0.0633484,-0.00502572,-0.00242292,42.9436,-4.27091,-13.5425,0.503156,-0.576562,-0.252372,0.592216,36.8125,0.689068,9.69302,-0.59626,0.632188,9.69237,-0.297684,0.0518766,0.00492011,-0.0446565,1.95199,-40.2783,14.3341,0.545023,-0.590983,-0.415651,-0.425351,32.0,9.55239,-0.798618,-2.69171,9.57596,-0.71204,-2.35573,0.00534214,-0.0564342,-0.0150532,-24.5254,10.096,4.8561,0.468204,0.557631,0.555075,0.40215
107,3106.77,5,84.0,32.5,-9.16987,2.64441,1.93365,-9.10678,2.77261,2.00541,-0.0345254,-0.0267612,-0.0503772,42.5689,-4.37474,-13.1474,0.50326,-0.576221,-0.252346,0.592469,36.8125,0.648665,9.69262,-0.674433,0.587898,9.75274,-0.221678,-0.0128899,-0.00910146,-0.046845,1.44691,-40.7754,14.1924,0.544973,-0.590994,-0.415625,-0.425425,32.0,9.59481,-0.686235,-2.53762,9.56057,-0.681904,-2.44656,-0.0247884,0.0136665,-0.0192015,-24.3723,9.1888,5.42502,0.46832,0.557411,0.554996,0.402429
107,3106.78,5,84.0,32.5,-9.32209,2.68318,1.89275,-9.16757,2.7579,1.96021,-0.0239309,-0.00331992,-0.0561669,42.5516,-3.50469,-12.4965,0.502948,-0.576419,-0.253452,0.592069,36.8125,0.879939,9.80538,-0.593167,0.647242,9.72256,-0.327912,-0.0324915,0.000724941,-0.0480645,1.81974,-40.6609,14.8993,0.545077,-0.5909,-0.415592,-0.425455,32.0,9.63224,-0.686472,-2.53723,9.54601,-0.606153,-2.34078,0.0460177,0.0160732,-0.0134784,-24.8872,9.47238,5.56471,0.468558,0.557109,0.555051,0.402494
107,3106.79,5,84.0,32.5,-9.17307,2.56786,1.85688,-9.12248,2.72739,1.97533,-0.0329171,0.0353271,-0.0140924,42.1958,-4.35482,-13.1467,0.503193,-0.576171,-0.253236,0.592195,36.8125,0.795505,9.7285,-0.865494,0.63202,9.72264,-0.358045,0.0293728,-0.00948362,-0.026977,2.35525,-40.9376,13.9176,0.54564,-0.590728,-0.415724,-0.424842,32.0,9.55169,-0.72236,-2.73078,9.54618,-0.681722,-2.29513,-0.0194483,-0.0103264,0.0310028,-24.402,10.2181,4.71456,0.469513,0.556172,0.555199,0.402473
107,3106.8,5,84.0,32.5,-9.13341,2.64378,1.89571,-9.12274,2.68209,1.99053,-0.0317481,0.0217925,-0.0203632,42.6871,-4.00867,-13.0186,0.503131,-0.576177,-0.253497,0.59213,36.8125,0.644935,9.57888,-0.790294,0.646972,9.72263,-0.373248,0.0626238,0.0154554,-0.0385086,1.69092,-40.6562,14.8984,0.54526,-0.590946,-0.415892,-0.424862,32.0,9.51556,-0.684476,-2.6928,9.50091,-0.712038,-2.3402,-0.0199477,-0.025036,0.0221984,-24.5098,9.58147,5.28224,0.469705,0.55605,0.555104,0.402549
107,3106.81,5,84.0,32.5,-9.20926,2.60643,1.8947,-9.19872,2.63731,1.9605,-0.00733082,0.0292295,-0.039023,42.1913,-4.1063,-13.017,0.50299,-0.576131,-0.253471,0.592307,36.8125,0.761865,9.692,-0.711101,0.632182,9.67726,-0.282615,-0.00951062,0.00231593,-0.0439759,2.34236,-40.5507,14.3383,0.545762,-0.590743,-0.415927,-0.424465,32.0,9.51717,-0.799024,-2.61489,9.56083,-0.666705,-2.38607,0.0265528,-0.0378598,0.0411063,-24.7657,9.98256,5.99004,0.4692,0.556714,0.555236,0.402037
107,3106.82,5,84.0,32.5,-9.39687,2.60822,1.93037,-9.13831,2.66706,1.94527,0.0134627,0.0147943,-0.0300258,42.57,-4.37488,-13.2786,0.503005,-0.575959,-0.253101,0.592619,36.8125,0.726337,9.8056,-0.634672,0.616517,9.69255,-0.403377,0.00378209,0.0242482,-0.0687891,2.22214,-40.8038,14.0569,0.546186,-0.590495,-0.416142,-0.424055,32.0,9.43901,-0.797586,-2.73147,9.53092,-0.636425,-2.35574,-0.00576225,-0.00623804,0.00508182,-24.7536,9.33781,5.849,0.468885,0.556977,0.555427,0.401777
107,3106.83,5,84.0,32.5,-9.21514,2.52921,1.74092,-9.09234,2.72717,1.9753,0.0450854,-0.0134422,-0.0129768,42.5672,-4.25055,-13.1481,0.50291,-0.575947,-0.252784,0.592846,36.8125,0.683249,9.65407,-0.789844,0.601746,9.69252,-0.35795,0.0254771,0.00115995,-0.0613107,2.09332,-40.7991,14.056,0.546428,-0.590428,-0.416296,-0.423685,32.0,9.47573,-0.721565,-2.77016,9.54593,-0.666671,-2.35572,0.0385604,-0.0329078,0.0144012,-24.2446,9.18243,5.42547,0.469034,0.556871,0.555498,0.401651
107,3106.84,5,84.0,32.5,-9.24598,2.56912,1.93276,-9.13831,2.63689,1.97554,0.003745,-0.017722,-0.0203397,42.9414,-4.51854,-12.8848,0.502649,-0.576024,-0.252897,0.592945,36.8125,0.719375,9.76639,-0.866996,0.631913,9.67732,-0.327951,0.0457724,-0.00115034,-0.0658237,2.10424,-41.057,13.6345,0.546718,-0.590351,-0.416524,-0.423194,32.0,9.51787,-0.875282,-2.57582,9.53077,-0.696962,-2.38581,0.0300674,-0.00215619,-0.0231442,-24.4958,9.06663,5.56656,0.469077,0.556708,0.555653,0.401614
107,3106.85,5,84.0,32.5,-9.20926,2.60643,1.8947,-9.10792,2.66687,1.97544,-0.0390127,-0.0428598,-0.025052,42.0575,-3.72651,-12.4941,0.502507,-0.576042,-0.253581,0.592755,36.8125,0.801024,9.65449,-0.671549,0.662667,9.7829,-0.32783,0.00372484,-0.0103242,-0.0283688,2.21441,-41.0622,14.7634,0.546861,-0.590411,-0.416428,-0.42302,32.0,9.55738,-0.685998,-2.538,9.53072,-0.651605,-2.40109,0.0408008,-0.0152356,0.0035445,-24.1266,9.56236,5.28361,0.469357,0.556406,0.555791,0.401513
107,3106.86,5,84.0,32.5,-9.29554,2.60433,1.58551,-9.10767,2.69707,1.97538,-0.00773875,-0.0337159,-0.016828,42.4401,-4.36751,-12.6222,0.502317,-0.576081,-0.25376,0.592802,36.8125,0.75739,9.72862,-0.866185,0.647985,9.78285,-0.267291,0.043417,-0.0095296,-0.0930276,2.07418,-40.1541,14.6162,0.546889,-0.590459,-0.416626,-0.422722,32.0,9.51595,-0.608538,-2.69327,9.53082,-0.742318,-2.37053,0.0297879,-0.01467,0.0184879,-24.3759,9.57647,5.85005,0.468997,0.556846,0.555941,0.401116
107,3106.87,5,84.0,32.5,-9.24839,2.60638,1.85562,-9.09284,2.69694,1.94516,-0.0373481,-0.0179962,-0.00417326,42.6843,-3.88434,-12.8881,0.502319,-0.576055,-0.254039,0.592706,36.8125,0.650407,9.9188,-0.636415,0.648171,9.79792,-0.252136,0.0495248,-0.0198954,-0.0702277,2.07358,-41.1869,15.6091,0.546698,-0.590599,-0.416787,-0.422614,32.0,9.51426,-0.722123,-2.73117,9.56077,-0.651599,-2.40125,0.0329656,0.00543374,0.0100196,-24.386,9.8332,5.42422,0.46923,0.556637,0.556005,0.401045
107,3106.88,5,84.0,32.5,-9.17575,2.56719,1.77987,-9.06334,2.65139,1.91503,-0.00413246,0.0204063,-0.0275677,42.9325,-4.0215,-12.6253,0.501912,-0.576369,-0.254625,0.592495,36.8125,0.682603,9.84208,-0.829188,0.632866,9.81313,-0.312449,0.0438171,0.000384958,-0.0615861,1.69472,-40.1397,14.1905,0.546442,-0.590813,-0.416864,-0.42257,32.0,9.54949,-0.721718,-2.80799,9.54576,-0.606227,-2.40132,-0.0282315,0.0114872,-0.0074149,-24.7739,9.85129,4.99734,0.469865,0.555894,0.555956,0.4014
107,3106.89,5,84.0,32.5,-9.2524,2.60538,1.74011,-9.06271,2.62128,2.0208,-0.027719,0.00868002,-0.043295,42.1925,-4.35438,-12.753,0.501964,-0.576152,-0.254719,0.59262,36.8125,0.648765,9.73027,-0.674553,0.64753,9.76784,-0.327782,0.0335299,0.0293,-0.0371386,2.60319,-41.0764,14.6251,0.546752,-0.590725,-0.416996,-0.422162,32.0,9.59081,-0.609013,-2.69249,9.54593,-0.681796,-2.35567,0.0148048,-0.000698206,-0.0145056,-24.3973,10.2192,5.14007,0.470234,0.555396,0.556139,0.401404
107,3106.9,5,84.0,32.5,-9.17521,2.64307,1.77962,-9.10716,2.7273,2.00551,-0.0584748,-0.0238889,-0.022187,42.561,-3.62992,-13.4143,0.502133,-0.575809,-0.254501,0.592905,36.8125,0.836006,9.76655,-0.787442,0.58746,9.78307,-0.327375,0.0599533,-0.0129063,-0.0874614,1.95395,-40.4073,14.3348,0.546673,-0.590865,-0.417202,-0.421864,32.0,9.47565,-0.949697,-2.73015,9.54587,-0.66669,-2.37085,0.0269173,0.00316688,0.00604376,-24.4946,8.93741,5.42488,0.470421,0.555236,0.556122,0.401429
107,3106.91,5,84.0,32.5,-9.2114,2.68163,1.81744,-9.1083,2.68192,1.91501,-0.0225274,-0.0473283,-0.0157894,43.1829,-4.15897,-12.625,0.50181,-0.575957,-0.254936,0.592847,36.8125,0.804854,9.80588,-0.555808,0.617447,9.76791,-0.3276,0.0578409,-0.0135471,-0.0605944,1.84318,-41.4348,14.1989,0.546546,-0.591107,-0.417267,-0.421626,32.0,9.59261,-0.685592,-2.61482,9.51595,-0.666659,-2.34042,0.0183095,0.0263019,0.01254,-24.3731,9.44759,5.85021,0.470049,0.555652,0.556252,0.401111
107,3106.92,5,84.0,32.5,-9.25079,2.45429,1.81761,-9.13806,2.68218,1.96034,0.000911056,-0.0222822,-0.00214074,42.5621,-3.87799,-13.1504,0.501847,-0.575835,-0.254656,0.593055,36.8125,0.727182,9.6929,-0.595569,0.632662,9.75272,-0.282399,-0.000849773,-0.0181423,-0.0448466,2.47438,-41.0717,14.6242,0.546927,-0.591046,-0.417214,-0.42127,32.0,9.43921,-0.759617,-2.7317,9.5309,-0.696925,-2.35554,-0.00687071,0.0117437,0.0107617,-23.8762,9.93694,5.56773,0.469755,0.556012,0.556143,0.401105
107,3106.93,5,84.0,32.5,-9.24999,2.56811,1.81724,-9.18377,2.66736,1.91512,0.00887328,-0.0434633,-0.0470072,42.9453,-4.64302,-13.1465,0.50191,-0.575482,-0.254294,0.5935,36.8125,0.688322,9.84337,-0.635483,0.618539,9.79788,-0.176394,-0.00722595,-0.0129483,-0.0223915,2.09259,-41.0573,14.3395,0.547037,-0.591064,-0.417092,-0.421223,32.0,9.51937,-0.799666,-2.53769,9.50086,-0.666681,-2.35548,-0.0180616,0.00953423,-0.0042555,-24.511,9.71069,5.42392,0.46982,0.555898,0.556107,0.401238
107,3106.94,5,84.0,32.5,-9.29099,2.49185,1.73991,-9.12425,2.59141,1.90012,-0.0278705,-0.0356853,-0.0447292,42.1863,-3.98167,-12.6241,0.501626,-0.575466,-0.254649,0.593603,36.8125,0.763607,9.91818,-0.673084,0.647823,9.82823,-0.342721,0.0115458,0.015568,-0.0477769,1.96843,-41.0524,14.0566,0.547041,-0.591117,-0.417101,-0.421135,32.0,9.70269,-0.685661,-2.69087,9.54632,-0.621185,-2.26506,0.000980068,-0.00670511,-0.0145983,-24.3852,9.57442,4.99903,0.470329,0.555288,0.556051,0.401564
107,3106.95,5,84.0,32.5,-9.17495,2.68101,1.7795,-9.15376,2.62187,1.94539,-0.0201848,0.017979,-0.0144861,43.063,-4.40085,-12.7545,0.50136,-0.575645,-0.254958,0.593521,36.8125,0.839737,9.88029,-0.671581,0.662786,9.85845,-0.388061,0.0265351,0.0434361,-0.0461231,2.21318,-40.675,14.4791,0.547011,-0.591123,-0.417229,-0.421037,32.0,9.51866,-0.723408,-2.57676,9.56089,-0.651562,-2.37098,0.00550428,0.000564602,-0.0042776,-23.9817,9.04183,5.85206,0.46974,0.555758,0.556462,0.401034
107,3106.96,5,84.0,32.5,-9.24892,2.5305,1.85587,-9.1544,2.57654,1.91529,0.00963805,-0.0226379,-0.0204214,42.6793,-3.75971,-12.4952,0.500956,-0.57591,-0.255558,0.593348,36.8125,0.792173,9.76538,-0.981837,0.616997,9.76801,-0.40316,0.00787121,0.089151,-0.0394033,2.22337,-41.1911,14.3411,0.546986,-0.590954,-0.417456,-0.421082,32.0,9.55279,-0.722681,-2.69218,9.5611,-0.591006,-2.32577,0.00302459,0.0551837,0.00331774,-24.62,9.20324,6.13329,0.469224,0.556208,0.556761,0.400599
107,3106.97,5,84.0,32.5,-9.25507,2.60471,1.66309,-9.18365,2.65229,1.94535,0.0023255,-0.0262578,-0.0256473,42.3162,-3.98905,-13.2804,0.501008,-0.575615,-0.25496,0.593847,36.8125,0.749184,9.6515,-1.13713,0.585822,9.73811,-0.554185,0.0238658,0.0285727,-0.0765176,1.96857,-41.827,14.766,0.546791,-0.591056,-0.417611,-0.421039,32.0,9.55098,-0.646102,-2.76985,9.56115,-0.621238,-2.31054,0.015393,-0.0349057,-0.0195512,-24.3922,9.83184,4.85687,0.469923,0.555302,0.557005,0.400697
107,3106.98,5,84.0,32.5,-9.28671,2.5308,1.8553,-9.24343,2.66786,1.99068,0.027349,-0.0382456,-0.0215295,42.4438,-3.99613,-13.6743,0.501072,-0.575253,-0.253926,0.594586,36.8125,0.645633,9.84245,-0.791138,0.661293,9.72276,-0.494235,0.0389686,-0.000399547,-0.0635078,1.95555,-40.6655,14.4773,0.546628,-0.591286,-0.417648,-0.42089,32.0,9.51595,-0.608538,-2.69327,9.56116,-0.590988,-2.31064,-0.0131793,-0.023969,-0.00534459,-24.1188,9.56407,5.9928,0.469101,0.556045,0.557148,0.40043
107,3106.99,5,84.0,32.5,-9.13956,2.52862,1.74205,-9.21379,2.68268,1.91511,0.0395399,-0.00319705,-0.0319372,42.5599,-3.62977,-13.2831,0.500783,-0.575331,-0.253728,0.594838,36.8125,0.799036,9.76693,-0.749392,0.67763,9.81312,-0.37317,0.0292505,0.0119314,-0.0657493,1.9693,-41.5688,14.4825,0.546556,-0.591412,-0.417703,-0.420753,32.0,9.55208,-0.646423,-2.73125,9.53082,-0.545712,-2.3863,0.0220049,0.00978975,0.00136651,-24.5106,9.84026,5.70744,0.468978,0.556136,0.557209,0.400362
107,3107.0,5,84.0,32.5,-9.21461,2.60509,1.74067,-9.13793,2.6671,1.99058,0.0308061,-0.00549492,-0.0488374,42.6943,-4.38152,-13.2788,0.500771,-0.57512,-0.253382,0.5952,36.8125,0.572337,9.6552,-0.675694,0.648075,9.78283,-0.252179,0.0488718,-0.0117784,-0.0322154,1.82796,-41.048,14.7606,0.546243,-0.591697,-0.417686,-0.420775,32.0,9.5901,-0.532754,-2.73156,9.53085,-0.636443,-2.37087,0.0109788,0.0117553,-0.00337051,-24.2466,9.57044,5.99234,0.468429,0.556646,0.557347,0.400105
107,3107.01,5,84.0,32.5,-9.29099,2.49185,1.73991,-9.10817,2.69702,1.91498,-0.0101008,0.0161811,-0.0553567,42.4356,-3.87106,-12.8877,0.500463,-0.575223,-0.253755,0.5952,36.8125,0.752516,9.61462,-1.02079,0.602574,9.73767,-0.267148,0.0576385,0.00786242,-0.0299109,2.35991,-40.9375,13.6356,0.546509,-0.591603,-0.417903,-0.420347,32.0,9.55719,-0.723966,-2.53777,9.56081,-0.71208,-2.38592,-0.014518,-0.0103858,-0.0296406,-24.6372,9.7174,5.5653,0.468412,0.556501,0.557413,0.400236
107,3107.02,5,84.0,32.5,-9.10151,2.56627,1.7425,-9.06296,2.68161,1.93006,0.0195938,0.0303211,-0.0169106,42.194,-3.98271,-13.5427,0.50048,-0.57511,-0.253109,0.595571,36.8125,0.720618,9.8043,-0.828376,0.585421,9.6324,-0.509152,0.0674574,-0.016231,-0.0502777,2.08363,-40.9284,14.7617,0.546302,-0.5919,-0.417987,-0.420113,32.0,9.59171,-0.647302,-2.65366,9.51563,-0.681877,-2.41605,-0.0309047,0.0090002,-0.0200491,-23.8696,9.54996,5.42637,0.468349,0.556436,0.557414,0.400396
107,3107.03,5,84.0,32.5,-9.1843,2.4893,1.54908,-9.00255,2.68118,1.9451,0.0218433,-0.00258817,-0.0588878,42.5593,-3.75366,-13.0199,0.500149,-0.575195,-0.253372,0.595654,36.8125,0.84088,9.88055,-0.63284,0.632218,9.76794,-0.373027,0.02312,-0.0185857,-0.0586234,2.3382,-41.1962,15.188,0.546381,-0.59199,-0.418001,-0.41987,32.0,9.51536,-0.722444,-2.69256,9.50094,-0.621288,-2.34049,0.0475471,-0.0424668,-0.0116601,-24.1348,9.949,5.28314,0.468591,0.556072,0.557683,0.400244
107,3107.04,5,84.0,32.5,-9.21701,2.45299,1.70266,-9.01762,2.69638,1.92999,0.0169073,0.0106012,-0.032623,42.8091,-3.51915,-13.5467,0.499984,-0.575207,-0.253196,0.595856,36.8125,0.640759,9.72846,-0.945739,0.692671,9.81308,-0.373261,0.0399975,-0.00743479,-0.00869419,2.08057,-41.1867,15.1862,0.546111,-0.59229,-0.417895,-0.419904,32.0,9.48234,-0.723492,-2.53854,9.57592,-0.636434,-2.37111,0.0315395,-0.0123941,0.00984869,-24.1208,9.43416,5.56745,0.46858,0.556104,0.557772,0.40009
107,3107.05,5,84.0,32.5,-9.21648,2.52887,1.70241,-9.10918,2.5913,1.90011,-0.0298333,-0.0172827,-0.0433252,42.8114,-4.01531,-13.0188,0.499728,-0.575193,-0.253459,0.595973,36.8125,0.645134,9.65419,-0.790535,0.69212,9.78298,-0.433795,0.0439308,0.0303774,-0.0470951,2.34716,-41.3251,14.7658,0.546141,-0.592363,-0.418003,-0.419655,32.0,9.54949,-0.721718,-2.80799,9.5908,-0.681842,-2.40131,0.0215984,-0.0299354,0.00808254,-24.1266,9.56236,5.28361,0.46886,0.555826,0.557838,0.400056
107,3107.06,5,84.0,32.5,-9.18537,2.5269,1.51045,-9.1397,2.5613,1.8851,0.0165247,-0.0162373,-0.0351656,42.8147,-4.01575,-13.4125,0.499565,-0.575077,-0.253109,0.59637,36.8125,0.640013,9.87881,-0.984962,0.617561,9.82834,-0.372763,0.0123344,0.0256591,-0.0583672,2.35305,-41.7122,14.768,0.546292,-0.592275,-0.418128,-0.419457,32.0,9.66495,-0.533228,-2.73079,9.54595,-0.606172,-2.35591,-0.0238353,-0.0381256,0.00237199,-24.5079,9.71137,5.7076,0.468534,0.556086,0.557902,0.399987
107,3107.07,5,84.0,32.5,-9.24705,2.60672,1.89413,-9.15389,2.60677,1.94542,-0.00156404,-0.019261,-0.0421842,42.8046,-3.27063,-13.417,0.499368,-0.575032,-0.253238,0.596523,36.8125,0.609706,9.80544,-0.714226,0.572239,9.78315,-0.357508,0.0225172,0.0249427,-0.0618391,1.9645,-40.7943,14.0551,0.546235,-0.592287,-0.418264,-0.419379,32.0,9.43901,-0.797586,-2.73147,9.50112,-0.666607,-2.29494,0.0142116,-0.0222306,0.0191637,-23.8747,9.93729,5.70956,0.468182,0.556533,0.55786,0.399836
107,3107.08,5,84.0,32.5,-9.28671,2.72016,1.81618,-9.12312,2.65188,1.97549,-0.0183511,0.0128733,-0.018805,42.681,-3.88389,-12.4944,0.498808,-0.575485,-0.254009,0.596227,36.8125,0.646677,9.80506,-0.752276,0.542996,9.85859,-0.296662,0.0120763,0.042381,-0.0720869,2.08007,-40.5413,14.6185,0.546139,-0.592169,-0.418511,-0.419424,32.0,9.44071,-0.684001,-2.69357,9.51564,-0.636502,-2.4162,-0.00802764,0.0035047,-0.00271016,-24.8919,9.47136,5.1392,0.468868,0.555862,0.557555,0.40039
107,3107.09,5,84.0,32.5,-9.29232,2.49152,1.7014,-9.13793,2.68219,1.97544,0.0151996,0.0196612,-0.0365308,42.063,-3.72725,-13.1503,0.49871,-0.575444,-0.253835,0.596423,36.8125,0.834217,9.9543,-0.865526,0.557761,9.84351,-0.327021,0.0529489,0.0320033,-0.0803281,1.70148,-41.0432,14.6187,0.545699,-0.592327,-0.418761,-0.419525,32.0,9.51426,-0.722123,-2.73117,9.51552,-0.621415,-2.44651,0.0202819,0.00977908,-0.00494003,-24.3704,9.3187,5.85037,0.468583,0.556059,0.557816,0.400087
107,3107.1,5,84.0,32.5,-9.16666,2.72096,2.01041,-9.09259,2.74223,1.92996,0.0352967,0.0329729,-0.051715,41.9403,-3.8448,-13.1493,0.498547,-0.575445,-0.253602,0.596657,36.8125,0.755601,9.91637,-0.944269,0.512355,9.81345,-0.341946,0.051079,-0.00856274,-0.0639402,2.60406,-41.5928,15.0511,0.545925,-0.592305,-0.418963,-0.41906,32.0,9.55169,-0.72236,-2.73078,9.54588,-0.63644,-2.37095,0.0427065,-0.00665356,-0.0215776,-24.6329,9.58886,5.7073,0.468536,0.555984,0.558011,0.399976
107,3107.11,5,84.0,32.5,-9.36443,2.60659,1.77691,-9.15287,2.72758,1.94516,-0.00876401,0.0264594,-0.0474871,42.1841,-3.73345,-12.7568,0.49826,-0.575596,-0.254009,0.596578,36.8125,0.648964,9.80558,-0.674794,0.482482,9.88904,-0.386884,0.00611691,-0.0175394,-0.0350678,1.96464,-41.5689,14.7645,0.545791,-0.592424,-0.418926,-0.419103,32.0,9.51556,-0.684476,-2.6928,9.54587,-0.651565,-2.3709,0.022201,-0.0373162,0.00407622,-24.5106,9.84026,5.70744,0.468359,0.556139,0.558143,0.399782
107,3107.12,5,84.0,32.5,-9.29179,2.56739,1.70116,-9.10729,2.72729,1.99041,-0.0111887,0.0310623,-0.0908213,41.806,-3.34097,-12.7584,0.497958,-0.575631,-0.254576,0.596555,36.8125,0.529001,9.84229,-0.870692,0.512187,9.84372,-0.402308,0.0417393,-0.00656619,-0.0452136,2.22387,-41.8365,14.9088,0.545745,-0.592522,-0.419035,-0.418915,32.0,9.51646,-0.722765,-2.65396,9.54607,-0.62126,-2.32559,-0.00156104,-0.0333511,-0.00776521,-23.9864,9.55872,6.41877,0.467122,0.55726,0.558453,0.399234
107,3107.13,5,84.0,32.5,-9.21327,2.60542,1.77918,-9.15275,2.69741,1.99052,-0.0471956,0.0383455,-0.0467697,42.8065,-3.89068,-12.6259,0.497649,-0.575832,-0.255298,0.59631,36.8125,0.682603,9.84208,-0.829188,0.571986,9.82855,-0.448051,0.0235369,-0.0402837,-0.042492,2.23319,-41.8363,14.3449,0.545956,-0.592632,-0.418977,-0.418542,32.0,9.40579,-0.836602,-2.57721,9.54594,-0.621297,-2.35586,0.0185341,-0.0163718,-0.0233079,-24.6473,9.97414,5.13947,0.467786,0.556429,0.558606,0.399402
107,3107.14,5,84.0,32.5,-9.28992,2.64361,1.73941,-9.18238,2.75804,1.99042,-0.0143014,0.0319648,-0.0264918,42.9285,-3.64909,-12.7588,0.497462,-0.576027,-0.255798,0.596064,36.8125,0.649064,9.84323,-0.674915,0.572251,9.81337,-0.387646,0.0167704,0.0224378,-0.0604361,2.21674,-41.0622,14.6224,0.545966,-0.592603,-0.419109,-0.418439,32.0,9.47844,-0.836434,-2.65365,9.53072,-0.651605,-2.40109,-0.000847361,-0.010685,-0.0130649,-24.2544,9.56873,5.28316,0.468124,0.556001,0.558608,0.3996
107,3107.15,5,84.0,32.5,-9.36256,2.6828,1.81517,-9.21252,2.78843,1.96018,0.0223219,0.0192066,-0.0573424,42.4445,-4.3681,-13.1472,0.497727,-0.57566,-0.255412,0.596362,36.8125,0.678973,9.76599,-0.945169,0.58683,9.78322,-0.433159,0.0028481,-0.0031786,-0.0185959,2.22533,-41.3201,14.3419,0.546069,-0.592664,-0.419009,-0.418317,32.0,9.51646,-0.722765,-2.65396,9.50063,-0.606256,-2.41621,-0.0398065,-0.00431612,-0.00444262,-24.5141,9.71001,5.14025,0.468575,0.555467,0.558511,0.399948
107,3107.16,5,84.0,32.5,-9.28457,2.64495,1.89344,-9.19783,2.75811,1.94514,0.0272019,0.00546144,-0.0435172,42.4344,-3.62298,-13.1517,0.497582,-0.575629,-0.255213,0.596598,36.8125,0.724249,9.88039,-0.712395,0.556921,9.76813,-0.387685,0.0245575,-0.0414598,-0.0619767,2.5962,-41.0766,15.0481,0.546354,-0.592724,-0.419001,-0.417868,32.0,9.62693,-0.646897,-2.73048,9.53073,-0.636481,-2.40114,-0.0670154,-0.0300437,0.0054851,-24.2528,9.56907,5.42499,0.468458,0.555531,0.558426,0.400116
107,3107.17,5,84.0,32.5,-9.17201,2.71962,1.85639,-9.18201,2.75808,2.03572,0.035766,0.0358888,-0.0374095,42.6783,-4.00749,-11.9687,0.496601,-0.576448,-0.25609,0.596249,36.8125,0.725194,9.80534,-0.673413,0.587178,9.75291,-0.342574,0.0542374,-0.0672203,-0.0448209,2.2219,-41.7075,14.9081,0.546339,-0.59305,-0.418898,-0.417529,32.0,9.63114,-0.686151,-2.57583,9.54569,-0.621371,-2.4164,0.0220048,-0.0423207,-0.00778731,-24.7665,9.72343,5.42301,0.468658,0.555236,0.558563,0.4001
107,3107.18,5,84.0,32.5,-9.17468,2.71895,1.77937,-9.16719,2.72776,2.03577,0.0287617,0.0140256,-0.0072897,42.5672,-4.25055,-13.1481,0.496967,-0.576151,-0.255521,0.596476,36.8125,0.57741,9.84451,-0.521334,0.557383,9.79825,-0.342262,0.0205221,-0.0489745,-0.0219833,1.43023,-40.9049,15.321,0.545625,-0.593474,-0.418761,-0.417996,32.0,9.59131,-0.72324,-2.65319,9.56108,-0.651506,-2.32558,0.00108202,-0.0034671,-0.0153554,-23.8821,10.0651,5.28389,0.468745,0.555043,0.558636,0.400164
107,3107.19,5,84.0,32.5,-9.25186,2.68126,1.73986,-9.12198,2.75761,2.00546,-0.000500503,-0.039862,-0.00189109,42.4367,-4.11914,-12.6237,0.497047,-0.576062,-0.255498,0.596505,36.8125,0.725393,9.88065,-0.673654,0.557401,9.84359,-0.387468,0.0380653,-0.0290835,-0.029467,2.21281,-40.8041,14.6209,0.545625,-0.59365,-0.418728,-0.41778,32.0,9.59131,-0.72324,-2.65319,9.57617,-0.651484,-2.31052,-0.00827327,-0.00600364,0.0176812,-24.1344,10.0786,5.56665,0.46858,0.555283,0.558543,0.400154
107,3107.2,5,84.0,32.5,-9.28617,2.60667,1.85506,-9.10691,2.72733,2.03571,0.0103686,-0.0282508,-0.0122371,42.1857,-3.6097,-13.1512,0.497172,-0.575843,-0.255079,0.596791,36.8125,0.723105,9.88013,-0.751136,0.49642,9.8288,-0.508044,0.0131715,-0.0889725,-0.0300643,2.72109,-40.8233,15.0475,0.546093,-0.593795,-0.418511,-0.417179,32.0,9.58841,-0.646339,-2.76947,9.51584,-0.606197,-2.37089,-0.0279752,-0.0339684,-0.00232635,-23.8606,9.42245,5.99387,0.467723,0.556022,0.558802,0.399769
107,3107.21,5,84.0,32.5,-9.24892,2.5305,1.85587,-9.16795,2.65224,2.02084,0.0293711,0.0126656,0.00353713,42.177,-3.85645,-11.7062,0.496232,-0.576749,-0.256077,0.596271,36.8125,0.728625,9.80612,-0.55719,0.511707,9.76825,-0.402524,-0.00239829,-0.0302973,-0.01641,2.19294,-40.4174,15.4646,0.545911,-0.593912,-0.418426,-0.417335,32.0,9.54878,-0.645459,-2.84706,9.51597,-0.60616,-2.34062,0.0172846,-0.00465146,0.00279413,-24.3883,10.0916,5.70758,0.4676,0.556141,0.558824,0.399716
107,3107.22,5,84.0,32.5,-9.3253,2.41727,1.85511,-9.21392,2.60723,1.97568,-0.0144779,-0.00888724,0.00811786,43.0528,-3.4078,-13.1542,0.496301,-0.576683,-0.255981,0.596319,36.8125,0.683747,9.84233,-0.790447,0.467189,9.70775,-0.236193,-0.00778002,-0.0208246,-0.0360537,2.07234,-40.7997,15.3249,0.545768,-0.593919,-0.418424,-0.417515,32.0,9.5875,-0.608049,-2.8083,9.54612,-0.651491,-2.31036,0.00633306,-0.0270417,0.000192121,-24.2454,9.44121,5.85067,0.467233,0.556461,0.558977,0.399487
107,3107.23,5,84.0,32.5,-9.25614,2.45295,1.66359,-9.12362,2.60656,1.96049,-0.0088391,-0.00938945,0.0165313,42.0563,-3.23051,-13.1533,0.496396,-0.576571,-0.255539,0.596537,36.8125,0.606075,9.72935,-0.830208,0.527019,9.76815,-0.357279,0.0189153,-0.0792989,-0.0225919,2.20632,-41.4497,15.6115,0.545699,-0.594189,-0.418232,-0.417414,32.0,9.51556,-0.684476,-2.6928,9.53085,-0.636443,-2.37087,-0.0522862,-0.0470499,-0.0143291,-24.7766,9.98017,4.99718,0.467827,0.555705,0.558972,0.399851
107,3107.24,5,84.0,32.5,-9.17708,2.56685,1.74136,-9.06372,2.57591,1.9454,0.0450134,-0.000214198,-0.0183999,42.9258,-3.52476,-12.6283,0.496023,-0.576874,-0.255917,0.596393,36.8125,0.640759,9.72846,-0.945739,0.556915,9.75301,-0.372616,0.0251832,-0.0512409,-0.0297293,2.3409,-41.0671,14.9053,0.545823,-0.594353,-0.418119,-0.417132,32.0,9.51017,-0.873034,-2.84604,9.56097,-0.621293,-2.35594,-0.0210967,-0.0332482,0.0110901,-25.0137,9.34953,5.42257,0.468109,0.55548,0.558677,0.400245
107,3107.25,5,84.0,32.5,-9.36389,2.49311,1.81579,-9.1083,2.65174,1.94528,0.0124978,-0.0154471,-0.00427555,42.4299,-3.37446,-13.0219,0.496033,-0.576815,-0.255695,0.596536,36.8125,0.834863,9.76629,-0.826183,0.616355,9.73794,-0.478807,0.0254649,-0.068381,-0.0329697,2.46026,-40.2975,14.7607,0.546069,-0.59458,-0.417919,-0.416685,32.0,9.47373,-0.682953,-2.84759,9.54588,-0.63644,-2.37095,0.0191957,0.00250387,-0.00501112,-24.2427,9.31233,5.85082,0.467791,0.55573,0.558888,0.399974
107,3107.26,5,84.0,32.5,-9.21247,2.52988,1.81793,-9.0921,2.65175,2.08117,0.0586345,-0.0225452,-0.0181073,42.9369,-4.02209,-13.1503,0.496189,-0.576593,-0.255216,0.596826,36.8125,0.798936,9.72928,-0.749271,0.63178,9.79827,-0.478725,0.0382306,-0.0576645,-0.0342979,2.08326,-41.0575,14.9034,0.54595,-0.59496,-0.417721,-0.416498,32.0,9.56128,-0.573055,-2.42289,9.51575,-0.696965,-2.38573,0.0191735,-0.025072,-0.000543352,-24.3755,9.70603,6.13357,0.467112,0.556382,0.559106,0.399557
107,3107.27,5,84.0,32.5,-9.17067,2.53059,1.93402,-9.0926,2.6517,2.02076,0.0288461,0.00242524,-0.00348509,43.0531,-4.15159,-11.9686,0.495248,-0.577397,-0.255917,0.59653,36.8125,0.646776,9.84271,-0.752397,0.601955,9.76805,-0.403069,-0.00276819,-0.039337,-0.0155545,2.46309,-40.9429,15.1874,0.546109,-0.595078,-0.41751,-0.416332,32.0,9.51587,-0.836671,-2.65326,9.50068,-0.666737,-2.40088,-0.0202576,-0.00581897,-0.00361753,-23.8669,9.42108,5.42652,0.467176,0.556276,0.559067,0.399684
107,3107.28,5,84.0,32.5,-9.2532,2.49156,1.74048,-9.1682,2.63713,2.00577,0.0739555,-0.00957615,-0.0425565,42.4416,-3.99584,-13.4119,0.495334,-0.577058,-0.254876,0.597233,36.8125,0.686134,9.88051,-0.713086,0.572802,9.84348,-0.327111,-0.00332911,-0.0349914,-0.0259993,2.72392,-41.4687,15.4742,0.546412,-0.595084,-0.417372,-0.416064,32.0,9.58731,-0.646017,-2.80807,9.5457,-0.575996,-2.41655,-0.0355176,-0.00435205,0.00580893,-24.509,9.8406,5.84928,0.466853,0.556565,0.559029,0.399714
107,3107.29,5,84.0,32.5,-9.20685,2.56916,1.97183,-9.16821,2.60695,2.03604,0.0183305,-0.0426633,-0.0242967,42.4338,-3.49894,-13.2836,0.495365,-0.57679,-0.254348,0.597691,36.8125,0.651997,9.65574,-0.55809,0.541976,9.78326,-0.387551,0.0154654,-0.0275271,-0.0279456,1.69682,-41.0433,14.9007,0.545981,-0.595443,-0.417194,-0.416296,32.0,9.62944,-0.799735,-2.61374,9.57598,-0.65154,-2.35593,-0.0545684,-0.0141992,0.0088174,-23.9907,9.16935,5.28455,0.467069,0.556382,0.558731,0.400131
107,3107.3,5,84.0,32.5,-9.44616,2.49201,1.62212,-9.15351,2.59172,2.00586,0.00728381,-0.017101,-0.0303006,43.1901,-4.28389,-13.2804,0.495582,-0.576436,-0.25397,0.598013,36.8125,0.64782,9.80532,-0.713535,0.556646,9.75308,-0.417952,-0.0110126,-0.0199263,-0.00503519,2.21085,-40.6751,14.6201,0.546045,-0.595525,-0.417009,-0.41628,32.0,9.51776,-0.685118,-2.61559,9.53073,-0.636481,-2.40114,0.00948871,0.0161521,0.0210867,-24.4993,9.4543,5.99159,0.4668,0.556716,0.558807,0.399875
107,3107.31,5,84.0,32.5,-9.16693,2.68302,2.01054,-9.16744,2.71265,2.02071,0.011028,0.0097515,-0.0293848,42.0702,-3.85218,-13.8057,0.49576,-0.576044,-0.252896,0.598697,36.8125,0.459635,9.84409,-0.639629,0.541616,9.78334,-0.447999,-0.012121,-0.047062,-0.0363848,1.97629,-41.5686,14.0596,0.546214,-0.59563,-0.416816,-0.416099,32.0,9.44231,-0.79855,-2.61566,9.56058,-0.651655,-2.44666,0.000518626,0.00549245,-0.0152728,-24.1247,9.69226,5.70897,0.466646,0.556779,0.558868,0.399882
107,3107.32,5,84.0,32.5,-9.28644,2.56874,1.85518,-9.16795,2.63716,2.03597,0.0286985,0.0132807,-0.00397218,42.4372,-3.74732,-13.2821,0.495752,-0.576035,-0.25258,0.598847,36.8125,0.647621,9.73001,-0.713294,0.526935,9.78329,-0.38746,0.0168242,-0.0205218,-0.0466666,2.46542,-40.9428,15.0464,0.546364,-0.595638,-0.416851,-0.415857,32.0,9.59131,-0.72324,-2.65319,9.54575,-0.621352,-2.40127,0.0317212,-0.0342162,0.0206729,-24.004,9.94332,5.56727,0.466669,0.556814,0.558958,0.399679
107,3107.33,5,84.0,32.5,-9.2122,2.56782,1.81781,-9.13756,2.68223,2.02074,0.0293869,0.0255896,-0.0428389,42.8108,-3.89127,-13.1508,0.495552,-0.576114,-0.252645,0.598909,36.8125,0.683548,9.76703,-0.790206,0.542066,9.78323,-0.372439,-0.00931279,-0.0667077,-0.0374604,2.5919,-40.9476,15.1884,0.546709,-0.595685,-0.416665,-0.415523,32.0,9.43921,-0.759617,-2.7317,9.53085,-0.636443,-2.37087,-0.0205727,0.0112132,-0.00739732,-24.1173,9.56441,6.13464,0.465986,0.55742,0.559047,0.399509
107,3107.34,5,84.0,32.5,-9.36309,2.60692,1.81542,-9.12248,2.69721,2.00559,0.0649354,0.000168194,-0.0172918,42.9302,-3.52535,-13.1533,0.495294,-0.576326,-0.25268,0.598903,36.8125,0.716988,9.72822,-0.944357,0.571975,9.79832,-0.417913,-0.041358,-0.0484543,-0.0147951,2.47008,-40.9427,14.7645,0.547059,-0.595681,-0.416371,-0.415361,32.0,9.63243,-0.648503,-2.53746,9.50076,-0.575969,-2.38604,0.0136283,-0.0365041,-0.0227218,-24.6282,9.58989,6.13281,0.465478,0.557735,0.559346,0.399243
107,3107.35,5,84.0,32.5,-9.24865,2.56844,1.85575,-9.15262,2.7276,1.97536,0.0626996,-0.0190772,-0.016271,42.6809,-3.63596,-12.8896,0.494986,-0.576557,-0.252764,0.5989,36.8125,0.686035,9.84285,-0.712965,0.557011,9.76811,-0.372573,0.0312429,-0.0443674,-0.0424747,2.46971,-41.0718,14.9062,0.547195,-0.595812,-0.416328,-0.415038,32.0,9.63114,-0.686151,-2.57583,9.57573,-0.636489,-2.41651,-0.00390863,-0.00216868,0.0114268,-24.652,10.491,5.70619,0.465577,0.557656,0.559334,0.399252
107,3107.36,5,84.0,32.5,-9.28323,2.45592,1.97107,-9.18277,2.71273,1.99052,0.0256661,-0.0259304,-0.0286743,43.1839,-3.91118,-13.1514,0.49485,-0.576548,-0.252738,0.599033,36.8125,0.682603,9.84208,-0.829188,0.58728,9.78311,-0.357599,-0.0100595,-0.0725651,-0.0325318,2.20546,-40.9334,15.1856,0.547214,-0.596017,-0.416067,-0.41498,32.0,9.59021,-0.722918,-2.69179,9.54588,-0.621315,-2.371,-0.0432038,-0.0309496,0.00081284,-24.3836,10.0927,6.13309,0.464893,0.558297,0.559276,0.399236
107,3107.37,5,84.0,32.5,-9.20819,2.56882,1.93333,-9.10779,2.6518,2.00568,-0.00100062,-0.011531,-0.0352425,42.1807,-3.48508,-12.7583,0.494688,-0.576593,-0.253114,0.598964,36.8125,0.615524,9.84439,-0.520643,0.572413,9.76799,-0.312216,0.0115991,-0.0501575,-0.0420576,2.33427,-40.9381,15.1865,0.547248,-0.596156,-0.415959,-0.414844,32.0,9.51147,-0.835386,-2.80767,9.51571,-0.636484,-2.40106,-0.0241009,-0.0701448,-0.0270753,-24.6434,10.2339,5.99018,0.464411,0.558572,0.559439,0.399184
107,3107.38,5,84.0,32.5,-9.24491,2.53151,1.97139,-9.15301,2.62195,2.03599,0.0120111,0.0138869,-0.00166376,42.9307,-3.64939,-13.0213,0.494594,-0.576729,-0.253294,0.598835,36.8125,0.763408,9.84287,-0.672842,0.556915,9.75301,-0.372616,0.013464,-0.036555,-0.0277293,2.19257,-40.5465,15.6063,0.546994,-0.596334,-0.415903,-0.414981,32.0,9.55138,-0.570164,-2.77032,9.53093,-0.59105,-2.35588,-0.0413045,0.000776159,0.00978049,-24.8934,9.47102,4.99736,0.465456,0.557678,0.558739,0.400195
107,3107.39,5,84.0,32.5,-9.25346,2.45362,1.7406,-9.12224,2.59162,2.14173,0.0312815,-0.00176512,-0.0353413,42.1835,-3.60941,-12.8888,0.494508,-0.576694,-0.253378,0.598904,36.8125,0.610005,9.9184,-0.714588,0.572155,9.79828,-0.387689,0.00645886,-0.0257942,-0.0326714,2.21601,-41.3204,14.9058,0.546983,-0.596464,-0.415794,-0.414918,32.0,9.55349,-0.79894,-2.65311,9.50063,-0.606256,-2.41621,0.0748542,-0.0424592,0.00337882,-24.7676,9.85265,5.56469,0.465862,0.557269,0.558928,0.400029
107,3107.4,5,84.0,32.5,-9.31995,2.60797,1.97001,-9.13832,2.57653,2.03608,-0.00342784,-0.0231533,-0.0306358,42.6776,-3.38759,-12.8911,0.49438,-0.576696,-0.253762,0.598845,36.8125,0.807241,9.84405,-0.478447,0.572155,9.79828,-0.387689,-0.00536527,-0.0490919,-0.0193136,2.33267,-40.68,15.044,0.547055,-0.596604,-0.415583,-0.414831,32.0,9.59391,-0.647945,-2.57645,9.5008,-0.6667,-2.37061,0.0247968,-0.00687082,-0.0255655,-23.9958,9.55667,5.56775,0.465928,0.557084,0.559031,0.400066
107,3107.41,5,84.0,32.5,-9.25266,2.56744,1.74023,-9.13769,2.60678,2.08131,0.0519372,0.0110694,-0.0379996,42.6864,-3.6367,-13.5458,0.494355,-0.576524,-0.253184,0.599276,36.8125,0.721563,9.72926,-0.789394,0.616997,9.76801,-0.40316,-0.00375237,-0.0217219,-0.0324304,2.34962,-42.0996,15.3342,0.547106,-0.596702,-0.415444,-0.414763,32.0,9.66267,-0.760719,-2.768,9.48578,-0.651578,-2.37058,0.0621338,-0.0375167,-0.0304811,-23.8715,9.93797,5.99324,0.465391,0.557486,0.55928,0.399783
107,3107.42,5,84.0,32.5,-9.32102,2.45622,1.9705,-9.13794,2.57657,2.08138,0.0309656,-0.0475743,-0.0284682,42.1914,-4.35423,-12.6218,0.494295,-0.576387,-0.253094,0.599494,36.8125,0.609606,9.76778,-0.714106,0.616715,9.73785,-0.418359,-0.0325148,-0.0308903,-0.0286467,2.33464,-40.809,15.0448,0.547247,-0.596747,-0.415216,-0.414741,32.0,9.55408,-0.685034,-2.65381,9.56072,-0.606243,-2.41653,-0.0126512,-0.0598269,-0.0127691,-24.1161,9.43519,5.99296,0.464812,0.557895,0.559549,0.39951
107,3107.43,5,84.0,32.5,-9.36736,2.37862,1.73915,-9.10843,2.5612,2.02098,0.0308094,-0.0648308,-0.0474105,42.3023,-3.36738,-12.628,0.493987,-0.576431,-0.253545,0.599516,36.8125,0.723751,9.69212,-0.711792,0.586992,9.73783,-0.357729,0.00113368,-0.0344165,-0.0498785,2.35735,-41.8412,14.6278,0.547496,-0.596752,-0.415152,-0.414468,32.0,9.62564,-0.684544,-2.76885,9.56083,-0.636455,-2.38617,0.012631,0.0108022,-0.0104647,-24.4977,9.45464,6.13343,0.464482,0.558139,0.559712,0.399325
107,3107.44,5,84.0,32.5,-9.24999,2.56811,1.81724,-9.09272,2.65169,2.00566,0.0372132,-0.0512762,-0.0452181,42.9285,-3.64909,-12.7588,0.493657,-0.576521,-0.253832,0.599579,36.8125,0.722906,9.80482,-0.750894,0.571699,9.78327,-0.44818,0.00525546,-0.0234713,-0.0616209,2.20619,-40.6752,14.9021,0.547467,-0.596847,-0.415135,-0.414387,32.0,9.55389,-0.723002,-2.65358,9.57574,-0.621364,-2.41656,-0.0027506,-0.0170912,-0.0107668,-24.1149,9.30596,5.85128,0.464302,0.558227,0.559787,0.399305
107,3107.45,5,84.0,32.5,-9.2524,2.60538,1.74011,-9.13781,2.63694,2.03594,0.00840342,-0.00183014,-0.0531897,42.058,-3.35469,-13.1525,0.493579,-0.576363,-0.253715,0.599845,36.8125,0.726337,9.8056,-0.634672,0.572167,9.82851,-0.417827,-0.00322492,-0.0311566,-0.0494326,2.06522,-40.0253,15.0384,0.547293,-0.596977,-0.415073,-0.414491,32.0,9.62583,-0.646576,-2.76908,9.59076,-0.606236,-2.41669,0.0154401,0.0195326,-0.0198283,-24.7618,9.20654,4.8563,0.465634,0.556985,0.559106,0.400442
107,3107.46,5,84.0,32.5,-9.21247,2.52988,1.81793,-9.18328,2.62215,2.02092,0.00332172,-0.0297278,-0.0307599,42.1874,-3.73389,-13.1505,0.493689,-0.576069,-0.253401,0.600169,36.8125,0.646976,9.91802,-0.752638,0.617572,9.85857,-0.402901,0.0129443,-0.0187083,-0.0543438,2.60319,-41.0764,14.6251,0.547631,-0.596926,-0.415096,-0.414095,32.0,9.54949,-0.721718,-2.80799,9.54581,-0.636459,-2.38609,0.0417406,-0.0113505,-0.0090204,-24.5036,9.58284,5.84959,0.465565,0.557001,0.559255,0.40029
107,3107.47,5,84.0,32.5,-9.28002,2.53247,2.04784,-9.1677,2.62209,2.08131,0.0247101,0.00048762,-0.0403679,42.9414,-4.27061,-13.28,0.493901,-0.575752,-0.253119,0.600419,36.8125,0.680316,9.84156,-0.906669,0.587772,9.8888,-0.38752,0.000311673,-0.00618024,-0.0651677,1.9661,-41.0525,14.1976,0.547596,-0.597021,-0.41505,-0.414052,32.0,9.48163,-0.647234,-2.57761,9.57592,-0.636434,-2.37111,0.0577576,-0.0182259,0.00828752,-24.1332,9.94934,5.42497,0.465948,0.556645,0.559404,0.400132
