subject_id,timestamp_s,activity_id,heart_rate_bpm,hand_temp_c,hand_acc16_x_ms2,hand_acc16_y_ms2,hand_acc16_z_ms2,hand_acc6_x_ms2,hand_acc6_y_ms2,hand_acc6_z_ms2,hand_gyro_x_rads,hand_gyro_y_rads,hand_gyro_z_rads,hand_mag_x_ut,hand_mag_y_ut,hand_mag_z_ut,hand_orientation_w,hand_orientation_x,hand_orientation_y,hand_orientation_z,chest_temp_c,chest_acc16_x_ms2,chest_acc16_y_ms2,chest_acc16_z_ms2,chest_acc6_x_ms2,chest_acc6_y_ms2,chest_acc6_z_ms2,chest_gyro_x_rads,chest_gyro_y_rads,chest_gyro_z_rads,chest_mag_x_ut,chest_mag_y_ut,chest_mag_z_ut,chest_orientation_w,chest_orientation_x,chest_orientation_y,chest_orientation_z,ankle_temp_c,ankle_acc16_x_ms2,ankle_acc16_y_ms2,ankle_acc16_z_ms2,ankle_acc6_x_ms2,ankle_acc6_y_ms2,ankle_acc6_z_ms2,ankle_gyro_x_rads,ankle_gyro_y_rads,ankle_gyro_z_rads,ankle_mag_x_ut,ankle_mag_y_ut,ankle_mag_z_ut,ankle_orientation_w,ankle_orientation_x,ankle_orientation_y,ankle_orientation_z
108,3800.36,24,195.0,30.875,2.68581,-8.7565,-2.39182,2.69335,-9.03613,-2.45061,-0.0185751,0.143306,-0.0196109,14.516,43.416,-5.50646,0.610089,0.729924,0.304058,-0.050498,34.0625,-1.18598,9.63066,0.415438,-1.49931,9.60545,0.546122,0.0699216,-0.0183378,-0.0303413,4.59935,-41.0252,18.4459,0.544737,-0.41221,-0.526939,-0.505648,31.6875,9.67235,-0.383281,-2.50011,9.53093,-0.349069,-2.3718,-0.00270727,0.00766694,0.0225505,-44.8308,15.0892,1.23307,0.552786,0.367635,0.698836,0.26627
108,3800.37,24,195.0,30.875,2.82895,-8.94904,-2.58146,2.61875,-8.99024,-2.40533,-0.00865677,0.0700569,-0.0435715,13.8938,43.0774,-4.84698,0.610215,0.729847,0.304039,-0.0502154,34.0625,-1.08832,9.52238,1.15326,-1.45204,9.5595,0.953743,-0.0652619,-0.0648459,-0.0171572,4.32431,-41.4034,19.8561,0.544977,-0.412191,-0.526607,-0.50575,31.6875,9.51974,-0.305432,-2.61793,9.56104,-0.349044,-2.35682,-0.0279843,-0.00866679,0.00736377,-44.5882,15.4621,0.807996,0.552753,0.36771,0.698782,0.266378
108,3800.38,24,195.0,30.875,2.64401,-8.94657,-2.46878,2.67916,-9.00575,-2.37516,0.0181503,0.0910019,-0.0291757,13.9015,43.0764,-5.76562,0.610649,0.729456,0.304136,-0.0500332,34.0625,-1.10836,9.29206,0.495387,-1.37588,9.46842,1.20993,-0.0238528,-0.0812665,-0.0125266,4.06115,-40.8777,19.7103,0.54513,-0.41234,-0.526262,-0.505824,31.6875,9.55067,-0.493906,-2.80939,9.56127,-0.424595,-2.29604,0.019571,0.0377878,0.0260426,-44.0574,14.7936,1.37797,0.552933,0.367808,0.698624,0.266285
108,3800.39,24,195.0,30.875,2.64481,-8.83276,-2.46915,2.63433,-8.9903,-2.34495,-0.0184443,0.120151,-0.0103295,13.645,43.3386,-5.24176,0.610938,0.729307,0.303968,-0.0497026,34.0625,-1.38615,9.8925,0.0624724,-1.41019,9.24275,0.740994,0.0435308,-0.030089,-0.0211467,4.98324,-41.9431,19.4408,0.54527,-0.412522,-0.526367,-0.505415,31.6875,9.48002,-0.532685,-2.65551,9.5159,-0.394447,-2.37157,0.0387681,0.0010815,0.00290444,-43.8035,14.7805,1.23704,0.553008,0.367748,0.698655,0.266129
108,3800.4,24,195.0,30.875,2.51914,-9.0622,-2.77815,2.60393,-8.99011,-2.37512,-0.015024,0.0749226,0.0149943,14.0299,42.4494,-5.23714,0.61107,0.72928,0.30378,-0.049611,34.0625,-1.37158,9.7829,0.566465,-1.55914,9.54505,0.667208,0.155365,-0.101711,-0.0681322,4.85282,-41.6802,19.2974,0.545393,-0.413028,-0.526699,-0.504522,31.6875,9.43899,-0.379289,-2.81125,9.48591,-0.40956,-2.35623,0.0444673,0.0209866,-0.0150119,-43.9406,15.3027,1.37779,0.552972,0.367894,0.698686,0.26592
108,3800.41,24,195.0,30.875,2.53011,-9.02158,-2.47023,2.64801,-9.0509,-2.45053,-0.0103285,0.0956974,-0.0227113,14.1392,43.0646,-4.4537,0.611079,0.729428,0.303467,-0.0492434,34.0625,-1.40064,9.74744,0.875821,-1.58562,9.78611,1.01566,0.0637074,0.0480293,-0.0636895,4.84227,-41.2932,19.5771,0.545357,-0.412909,-0.527135,-0.504203,31.6875,9.48062,-0.41878,-2.65622,9.51585,-0.333966,-2.3869,-0.00888381,0.00279494,0.00358284,-43.948,15.4306,0.952117,0.552912,0.368047,0.698645,0.265942
108,3800.42,24,195.0,30.875,2.5687,-9.09741,-2.43091,2.66257,-9.08124,-2.48068,-0.0642926,0.0675691,-0.00761214,14.0214,43.0703,-5.24089,0.611031,0.729493,0.30344,-0.0490458,34.0625,-1.43503,9.8613,0.990991,-1.5993,9.80095,1.22736,-0.0266108,0.0606233,-0.0495441,4.84423,-41.4223,19.5779,0.545446,-0.412531,-0.527316,-0.504227,31.6875,9.73839,-0.381186,-2.80816,9.50107,-0.37927,-2.32613,0.0255408,-0.0123241,-0.00277026,-44.4293,14.4267,1.66075,0.552931,0.367997,0.69868,0.265879
108,3800.43,24,195.0,30.875,2.6006,-8.98556,-2.62324,2.67853,-9.06617,-2.39013,-0.0682809,0.101165,0.00010509,14.5178,43.0439,-5.11051,0.610959,0.729695,0.303158,-0.048677,34.0625,-1.33232,9.78304,0.605897,-1.584,9.78573,1.28767,0.00313187,0.0138136,-0.0436772,4.97035,-41.5562,19.8615,0.545629,-0.412373,-0.527418,-0.504051,31.6875,9.62643,-0.53267,-2.76978,9.5914,-0.33382,-2.28135,0.00858931,-0.0107605,0.0098036,-44.3133,14.6767,1.09354,0.553054,0.367852,0.698615,0.265995
108,3800.44,24,195.0,30.875,2.52503,-8.98498,-2.62438,2.64814,-9.02071,-2.4657,-0.0158288,0.0707696,0.0165209,14.3862,43.4234,-4.85008,0.610978,0.729803,0.302879,-0.048551,34.0625,-1.33366,9.70748,0.567397,-1.56987,9.75568,1.1666,-0.0347199,0.0434426,-0.0171954,4.20714,-41.3983,19.1503,0.545422,-0.412149,-0.527412,-0.504464,31.6875,9.48223,-0.533328,-2.57831,9.62094,-0.333962,-2.40259,0.0264429,0.0131528,0.0250419,-43.7985,14.9111,1.94607,0.552901,0.368328,0.698631,0.265612
108,3800.45,24,195.0,30.875,2.5261,-9.02258,-2.58575,2.60217,-9.08082,-2.49572,0.00767663,0.0700764,0.00677831,13.7722,42.9597,-4.97725,0.611176,0.729693,0.302752,-0.0485082,34.0625,-1.30386,9.59258,0.297264,-1.54234,9.66552,0.833695,0.033367,-0.0588864,-0.0523681,4.07403,-41.2646,19.2896,0.545321,-0.412302,-0.527415,-0.504446,31.6875,9.52064,-0.343722,-2.57909,9.57602,-0.273435,-2.37228,0.0237159,-0.0162951,-0.000449087,-44.4445,15.0708,1.51812,0.552787,0.368462,0.698692,0.265503
108,3800.46,24,195.0,30.875,2.71424,-8.9485,-2.62167,2.67764,-9.12662,-2.4353,-0.0127573,0.0518481,-0.0341857,14.7704,42.6582,-4.97745,0.611177,0.729748,0.302656,-0.0482696,34.0625,-1.22514,9.66817,0.375886,-1.55901,9.63571,0.591908,0.0349895,-0.0808085,-0.0266705,4.59076,-40.7672,18.7263,0.545417,-0.412574,-0.527391,-0.504145,31.6875,9.47512,-0.417173,-2.84923,9.53113,-0.303639,-2.32654,-0.041894,0.00820167,0.017726,-43.9449,15.4312,1.23579,0.552636,0.368886,0.698539,0.265631
108,3800.47,24,195.0,30.875,2.63706,-8.98619,-2.66118,2.6765,-9.18709,-2.51067,-0.0445523,0.0566728,0.00900588,14.0192,43.0706,-4.97843,0.611143,0.729828,0.302545,-0.0481763,34.0625,-1.25848,9.74463,0.529917,-1.54416,9.62061,0.576661,0.0867722,-0.0792972,-0.0166691,4.5877,-41.0255,19.1508,0.545366,-0.413014,-0.527476,-0.50375,31.6875,9.59459,-0.305906,-2.61716,9.53092,-0.409569,-2.3716,-0.0524233,0.0248679,0.0210055,-43.4246,14.8899,1.09642,0.552688,0.36905,0.698339,0.265821
108,3800.48,24,195.0,30.875,2.74588,-9.06395,-2.77475,2.69183,-9.15699,-2.51075,-0.0554002,0.0637283,-0.0310167,14.0198,42.9466,-4.84644,0.611062,0.729921,0.302529,-0.0478973,34.0625,-1.41144,9.55684,0.527757,-1.51336,9.62037,0.697376,0.0717317,-0.112659,0.00591427,4.60059,-41.4124,18.7301,0.545356,-0.413581,-0.527334,-0.503444,31.6875,9.51325,-0.493669,-2.80977,9.53076,-0.30375,-2.41735,-0.000766171,-0.0104078,0.0113578,-43.682,15.2907,1.66238,0.552418,0.369535,0.698362,0.265647
108,3800.49,24,195.0,30.875,2.79597,-9.02328,-2.42775,2.73792,-9.11196,-2.45049,-0.0618906,0.0784005,-0.0105735,14.2647,43.0578,-4.58515,0.610916,0.730165,0.30229,-0.047547,34.0625,-1.17932,9.55691,0.648125,-1.52752,9.57485,0.893793,0.0814301,-0.0676899,-0.0225912,5.11672,-41.9478,19.1597,0.5455,-0.413916,-0.527429,-0.502914,31.6875,9.51164,-0.379121,-2.88768,9.50084,-0.288595,-2.38697,-0.0218862,0.0466028,0.0275916,-43.9426,15.1728,0.952435,0.552625,0.369538,0.69813,0.265823
108,3800.5,24,195.0,30.875,2.71157,-8.94917,-2.69868,2.79821,-9.09731,-2.46569,-0.0447381,0.06327,-0.0242075,14.1397,43.1884,-4.71692,0.610863,0.730261,0.302214,-0.0472444,34.0625,-1.21753,9.51937,0.647554,-1.49626,9.58962,1.075,0.111152,-0.0664508,-0.0030468,4.19266,-40.7533,19.4285,0.545256,-0.414403,-0.527475,-0.502729,31.6875,9.58869,-0.380237,-2.8097,9.51566,-0.349147,-2.43226,0.00410052,0.00742344,0.0225661,-43.8137,15.0372,0.811214,0.55281,0.369369,0.698067,0.265839
108,3800.51,24,138.0,30.875,2.5269,-9.09812,-2.54699,2.75312,-9.11206,-2.43541,-0.0390078,0.0470524,-0.00961542,14.0137,43.3193,-4.71746,0.610831,0.730326,0.302146,-0.0470769,34.0625,-1.14414,9.74428,0.53199,-1.49652,9.6048,1.01459,0.0663749,-0.0787228,-0.00810606,4.85282,-41.6802,19.2974,0.545346,-0.414788,-0.527412,-0.50238,31.6875,9.59301,-0.609655,-2.61529,9.53075,-0.318875,-2.4173,0.00932262,-0.0140826,0.00583569,-43.8043,15.0393,1.66224,0.552615,0.369669,0.698132,0.265657
108,3800.52,24,138.0,30.875,2.68394,-9.02207,-2.39095,2.69321,-9.12667,-2.37491,-0.0300273,0.051516,-0.00517605,14.0215,42.8224,-4.84569,0.610869,0.73034,0.302058,-0.0469496,34.0625,-1.26191,9.74386,0.413695,-1.48172,9.6804,0.893823,0.0745305,-0.0716294,-0.0299506,5.49284,-40.6714,18.5911,0.545741,-0.415072,-0.527523,-0.501598,31.6875,9.55217,-0.41829,-2.77125,9.53099,-0.364176,-2.35661,-0.0368993,0.0315273,0.0124437,-44.3191,14.8049,0.809705,0.552917,0.36937,0.697912,0.26602
108,3800.53,24,138.0,30.875,2.55827,-8.8728,-2.77821,2.73905,-9.12693,-2.29945,-0.0207559,0.0589132,-0.0156789,14.264,43.4297,-5.11233,0.611008,0.730254,0.302014,-0.0467698,34.0625,-1.30614,9.59207,0.219782,-1.49699,9.78629,0.743096,-0.0094806,-0.070127,0.0376609,4.83834,-41.0352,19.5756,0.545835,-0.415385,-0.527232,-0.501544,31.6875,9.48163,-0.647234,-2.57761,9.53137,-0.364064,-2.2658,-0.0543095,0.0452974,0.0251308,-43.9546,15.8176,1.09348,0.552854,0.369898,0.6976,0.266236
108,3800.54,24,138.0,30.875,2.59606,-9.25181,-2.69939,2.72411,-9.09663,-2.3146,-0.0653123,0.0603905,0.00551237,14.0119,43.6914,-5.11341,0.61102,0.730281,0.301946,-0.0466029,34.0625,-1.29451,9.66996,0.606949,-1.5427,9.66561,0.773247,0.00358555,-0.0740308,-0.00405871,4.59236,-41.0253,18.8688,0.545878,-0.41562,-0.527039,-0.501506,31.6875,9.48333,-0.533649,-2.53971,9.50117,-0.485108,-2.29552,0.0103124,0.0391937,0.0488758,-43.8199,15.5538,1.23609,0.552952,0.370291,0.697383,0.266057
108,3800.55,24,138.0,30.875,2.60649,-9.28706,-2.39121,2.7074,-9.15705,-2.45036,-0.0159685,0.072581,0.0215911,14.0081,43.5679,-4.45649,0.611051,0.730396,0.301626,-0.0464736,34.0625,-1.26117,9.5935,0.452918,-1.57188,9.68058,0.90948,0.0137737,-0.0983355,0.0191432,4.44993,-40.8919,19.5721,0.545901,-0.415956,-0.526767,-0.501487,31.6875,9.58979,-0.380559,-2.7711,9.48584,-0.454954,-2.37122,0.0132271,-0.0233785,-0.0131469,-43.6972,15.4168,0.527519,0.553023,0.370004,0.697488,0.266032
108,3800.56,24,138.0,30.875,2.71559,-9.32688,-2.50491,2.76755,-9.21785,-2.40499,-0.0348566,0.0290623,0.00239201,14.0137,43.0713,-4.32226,0.610937,0.730567,0.301459,-0.0463735,34.0625,-1.22017,9.81982,0.530367,-1.52657,9.68044,0.939431,0.0100721,-0.0968629,-0.00874024,4.44563,-40.7629,19.7123,0.546014,-0.41622,-0.526531,-0.501393,31.6875,9.4395,-0.493516,-2.77194,9.51598,-0.318804,-2.35668,-0.00241459,-0.0340519,-0.000684382,-43.9406,15.3027,1.37779,0.552785,0.370264,0.697567,0.265958
108,3800.57,24,138.0,30.875,2.49045,-9.0975,-2.50905,2.73742,-9.18746,-2.43523,-0.0373141,0.0505268,0.0239428,14.0137,43.0713,-4.32226,0.61084,0.730775,0.301167,-0.0462735,34.0625,-1.18349,9.70648,0.492679,-1.51142,9.72572,0.909246,0.0579864,-0.0581461,-0.0468325,4.85123,-41.4221,19.1549,0.546123,-0.416441,-0.526593,-0.501026,31.6875,9.52244,-0.420302,-2.50142,9.50081,-0.394469,-2.38662,0.00201143,-0.00106232,-0.0153304,-44.3215,15.0634,1.09306,0.552857,0.370066,0.697573,0.266068
108,3800.58,24,138.0,30.875,2.63813,-9.02379,-2.62255,2.67751,-9.17189,-2.405,-0.0440442,0.054614,0.0248224,13.5162,43.5938,-5.11181,0.610993,0.730657,0.301142,-0.0462804,34.0625,-1.37083,9.63255,0.605688,-1.46638,9.75587,0.863724,0.0267121,-0.0622395,0.0193844,4.20371,-41.7857,19.7165,0.545863,-0.416804,-0.526381,-0.501229,31.6875,9.63252,-0.42037,-2.57747,9.48596,-0.454917,-2.34095,-0.0450339,-0.0349384,0.00155835,-44.3121,15.0654,1.94408,0.552467,0.370593,0.697656,0.265927
108,3800.59,24,138.0,30.875,2.71184,-9.10059,-2.65968,2.73729,-9.23273,-2.40492,-0.0486346,0.04337,0.0143723,13.8898,43.6977,-5.37566,0.611103,0.730535,0.301211,-0.0462951,34.0625,-1.14767,9.70585,0.415888,-1.43685,9.7257,0.803008,0.0662299,-0.0981907,-0.0169526,4.97661,-41.8142,19.722,0.546027,-0.417261,-0.52629,-0.500766,31.6875,9.47983,-0.570654,-2.65528,9.50095,-0.364182,-2.35645,-0.0112302,0.00937122,0.00285059,-43.4351,15.535,1.3793,0.552295,0.370992,0.697585,0.265917
108,3800.6,24,138.0,30.875,2.44865,-9.28757,-2.58601,2.70677,-9.21747,-2.46533,-0.025863,0.0723094,0.0181107,14.0188,42.6988,-4.32001,0.611065,0.73072,0.300865,-0.0461281,34.0625,-1.33749,9.55609,0.451657,-1.45217,9.69557,0.7879,0.0359482,-0.102236,-0.0219007,5.09917,-41.561,19.8624,0.546335,-0.417618,-0.52614,-0.50029,31.6875,9.62883,-0.495344,-2.69281,9.54602,-0.333922,-2.35679,0.000913396,0.0176775,-0.0143698,-44.2047,15.5725,1.09288,0.552314,0.370981,0.697529,0.266037
108,3800.61,24,138.0,30.875,2.6818,-9.13623,-2.42908,2.70701,-9.27779,-2.37459,-0.0613739,0.0691374,0.0467905,14.7644,42.783,-4.45326,0.610878,0.731105,0.300335,-0.0459547,34.0625,-1.254,9.70802,0.685001,-1.49639,9.69546,0.939293,0.0267446,-0.0407473,-0.022634,4.07673,-41.1354,19.0069,0.546085,-0.417826,-0.526043,-0.500492,31.6875,9.62442,-0.494059,-2.84722,9.60635,-0.37921,-2.29642,0.0194636,-0.013967,-0.0232829,-43.5543,15.2843,1.66283,0.552072,0.371271,0.697609,0.265925
108,3800.62,24,138.0,30.875,2.72093,-9.32554,-2.35088,2.70626,-9.32314,-2.4198,-0.0565416,0.027951,0.00625091,14.1419,43.1882,-4.97939,0.610834,0.731135,0.300352,-0.0459523,34.0625,-1.25276,9.74593,0.723621,-1.51033,9.77081,1.04538,0.0687656,-0.067403,-0.035821,4.97232,-41.6852,19.8622,0.546229,-0.418105,-0.526074,-0.500068,31.6875,9.63342,-0.45866,-2.53863,9.53112,-0.364139,-2.32634,-0.012123,0.00781395,0.00598459,-44.4504,15.199,1.23428,0.552154,0.371235,0.697504,0.266082
108,3800.63,24,138.0,30.875,2.83002,-9.176,-2.5037,2.75172,-9.32344,-2.38964,-0.0110239,0.0875035,0.0137814,14.1431,42.9401,-4.71542,0.610996,0.731129,0.300067,-0.0457674,34.0625,-1.29316,9.74553,0.645449,-1.49585,9.69533,1.02996,0.0480481,-0.0817413,-0.0207484,4.33057,-41.6614,19.7166,0.546149,-0.418429,-0.525943,-0.500022,31.6875,9.59411,-0.609976,-2.57669,9.56102,-0.409544,-2.35663,-0.0345086,-0.0233959,-0.0219378,-44.057,14.9231,1.66148,0.551939,0.371394,0.697543,0.266202
108,3800.64,24,138.0,30.875,2.86995,-9.06214,-2.465,2.76717,-9.26315,-2.40489,-0.0320342,0.0381389,0.0562001,15.0103,42.8941,-4.3232,0.610833,0.731478,0.299552,-0.0457337,34.0625,-1.2642,9.74334,0.336213,-1.49619,9.75587,0.909242,0.0280162,-0.0578064,-0.0292067,5.10296,-41.0445,19.1545,0.546388,-0.418591,-0.525917,-0.499653,31.6875,9.5951,-0.420133,-2.57785,9.56104,-0.349044,-2.35682,0.00771462,-0.00864363,-0.0209006,-44.4504,15.199,1.23428,0.551958,0.371231,0.697568,0.266323
108,3800.65,24,138.0,30.875,2.68073,-9.09862,-2.46771,2.79769,-9.29351,-2.32935,0.021322,0.018149,0.0253346,14.2663,43.1815,-4.9796,0.611073,0.731293,0.29949,-0.0458886,34.0625,-1.30221,9.78111,0.335402,-1.52692,9.71075,0.848846,-0.00458039,-0.0659811,-0.033104,5.08628,-41.174,20.2832,0.546721,-0.418679,-0.525804,-0.499334,31.6875,9.58779,-0.341948,-2.84854,9.51593,-0.273448,-2.37196,0.0235798,0.0346281,-0.0243918,-44.0765,15.1778,0.38463,0.552356,0.370527,0.697539,0.266556
108,3800.66,24,138.0,30.875,2.75952,-9.02266,-2.38981,2.76881,-9.18754,-2.28425,0.00566851,0.0530197,-0.00382571,14.1425,43.0641,-4.8474,0.611304,0.731142,0.299403,-0.0457874,34.0625,-1.29679,9.66945,0.529468,-1.48161,9.72572,0.863729,0.0140895,-0.0577191,0.000492905,5.1042,-41.4317,19.4387,0.546873,-0.418902,-0.525671,-0.499121,31.6875,9.51655,-0.494633,-2.69397,9.57595,-0.288578,-2.38736,0.00686503,0.0167242,-0.00806116,-44.3145,14.806,1.23522,0.552507,0.370305,0.697465,0.266745
108,3800.67,24,138.0,30.875,2.83831,-9.13605,-2.27279,2.81491,-9.1576,-2.20886,-0.0485644,0.0399998,0.0134288,14.3802,43.3002,-3.93069,0.611117,0.731467,0.299027,-0.0455592,34.0625,-1.18578,9.70597,0.415197,-1.46666,9.7257,0.848526,0.000735172,-0.0700016,-0.00134659,4.83797,-41.1643,19.7174,0.546992,-0.419132,-0.525456,-0.499023,31.6875,9.55767,-0.419896,-2.57824,9.57607,-0.333916,-2.35695,0.0471876,-0.026309,-0.0209624,-44.3187,14.9345,1.09322,0.552583,0.369969,0.697588,0.266732
108,3800.68,24,138.0,30.875,2.60462,-9.17392,-2.4686,2.79908,-9.17266,-2.28431,0.0125097,0.035034,0.0366273,14.3808,43.1762,-3.79871,0.611094,0.73168,0.298557,-0.0455177,34.0625,-1.3045,9.78059,0.25792,-1.48188,9.7409,0.803324,0.0141887,-0.0808479,0.0077758,4.58267,-41.1547,19.5745,0.546966,-0.419457,-0.525222,-0.499025,31.6875,9.62962,-0.34347,-2.69374,9.56106,-0.273419,-2.35706,0.0321787,-0.0196497,0.016872,-43.9433,14.9137,0.385405,0.552879,0.369438,0.697626,0.266756
108,3800.69,24,138.0,30.875,2.83269,-9.17533,-2.42669,2.82872,-9.2031,-2.31448,0.00226051,0.0292441,0.0154166,14.7582,43.1557,-4.32428,0.611115,0.731783,0.298274,-0.0454422,34.0625,-1.25858,9.70698,0.530038,-1.48177,9.7711,0.788298,0.0148927,-0.0699565,-0.0019991,4.97415,-41.0397,19.1536,0.547101,-0.419718,-0.525066,-0.498822,31.6875,9.48302,-0.381453,-2.57924,9.57626,-0.318735,-2.31159,0.0127633,-0.0162461,0.0404849,-44.4504,15.199,1.23428,0.552886,0.369624,0.697567,0.266638
108,3800.7,24,138.0,30.875,2.79758,-9.17437,-2.35024,2.8733,-9.2035,-2.39003,-0.00621733,0.0126747,-0.00361216,14.5223,42.5475,-4.84504,0.611182,0.731715,0.298303,-0.0454363,34.0625,-1.29585,9.5944,0.56845,-1.51205,9.72587,0.803462,0.0114184,-0.0953318,-0.00403558,4.6997,-40.3852,19.571,0.547242,-0.420006,-0.524845,-0.498657,31.6875,9.4362,-0.492552,-2.88775,9.56123,-0.333864,-2.31146,0.0370859,0.0265424,0.0212568,-43.8172,15.4249,1.23625,0.552944,0.369835,0.697466,0.26649
108,3800.71,24,138.0,30.875,2.82306,-9.02626,-2.73524,2.81264,-9.24837,-2.38987,-0.0281322,0.0216969,0.00391326,14.3923,43.0507,-4.97906,0.611232,0.731657,0.298342,-0.0454419,34.0625,-1.25868,9.66933,0.530159,-1.52693,9.69563,0.863915,0.0400787,-0.0992822,-0.00779434,4.56942,-40.8969,20.137,0.547273,-0.420349,-0.524695,-0.498492,31.6875,9.5894,-0.456496,-2.77063,9.53099,-0.379301,-2.35656,0.0428544,0.0213516,0.0117704,-43.9367,15.0446,1.23627,0.553099,0.369781,0.697423,0.266356
108,3800.72,24,138.0,30.875,2.67699,-9.25105,-2.54423,2.78136,-9.32371,-2.45007,-0.0248695,0.001921,-0.0175725,14.7665,43.0306,-5.11093,0.611228,0.731592,0.298504,-0.0454783,34.125,-1.2544,9.5574,0.685484,-1.45137,9.66515,0.954046,-0.000356893,-0.0832015,0.00201061,4.97808,-41.2978,19.1551,0.547463,-0.420606,-0.52442,-0.498356,31.6875,9.55488,-0.533159,-2.65474,9.53099,-0.379301,-2.35656,-0.00302894,-0.000656127,0.00435362,-44.1871,14.67,0.952158,0.5533,0.369484,0.697347,0.266548
108,3800.73,24,138.0,30.875,2.82039,-9.21629,-2.77312,2.78174,-9.24823,-2.48044,-0.0333224,-0.00708891,-0.00543977,14.7648,43.1548,-5.11168,0.611167,0.731573,0.298663,-0.0455709,34.125,-1.21808,9.74503,0.60809,-1.49632,9.66521,0.984542,0.0288037,-0.0363159,-0.00185547,4.32344,-40.887,19.4302,0.547243,-0.420807,-0.524339,-0.498513,31.6875,9.70537,-0.382234,-2.65414,9.54647,-0.303543,-2.25094,0.00641025,0.000721966,0.0122688,-43.8098,15.297,1.66192,0.553077,0.369996,0.697307,0.266406
108,3800.74,24,138.0,30.875,2.74535,-9.32919,-2.73538,2.75147,-9.2782,-2.46524,-0.0255341,-0.00650793,-0.0195245,14.0159,43.319,-4.97993,0.611223,0.731413,0.298928,-0.0456597,34.125,-1.14488,9.89463,0.492767,-1.45053,9.75565,0.999641,0.0506842,-0.0605841,-0.0137756,4.70879,-41.2886,19.8582,0.547226,-0.421105,-0.524273,-0.49835,31.6875,9.66535,-0.457291,-2.73126,9.57631,-0.348967,-2.29636,0.000958107,0.0149403,0.0305057,-43.8242,15.6823,1.09409,0.553042,0.370363,0.697156,0.266363
108,3800.75,24,138.0,30.875,2.7097,-9.21474,-2.69781,2.75033,-9.35376,-2.52548,-0.0518377,0.00190131,-0.00121337,14.3996,42.4299,-4.84408,0.611077,0.731499,0.299007,-0.0457073,34.125,-1.0698,9.89413,0.455408,-1.43564,9.83122,0.893983,0.0454289,0.0391545,-0.0367614,5.22995,-41.6947,19.8641,0.547195,-0.421089,-0.524544,-0.498112,31.6875,9.51945,-0.571533,-2.57769,9.59126,-0.409482,-2.31138,-0.0131216,0.0290605,0.0132709,-44.0769,15.5662,1.09334,0.553077,0.370569,0.696994,0.266428
108,3800.76,24,138.0,30.875,2.75284,-9.21369,-2.54322,2.75059,-9.32356,-2.52555,-0.00604091,0.0182106,-0.0151295,14.1399,42.6926,-3.92652,0.610962,0.731652,0.29888,-0.0456318,34.125,-1.21828,9.66973,0.608331,-1.4205,9.84628,0.893935,-0.0238299,-0.0290008,-0.0384272,4.58733,-41.1546,19.2925,0.54723,-0.4211,-0.524398,-0.498217,31.6875,9.63103,-0.495986,-2.6156,9.62137,-0.379207,-2.2965,-0.0173229,0.0568959,0.0182473,-44.4566,15.1976,0.666934,0.553476,0.370283,0.696714,0.266729
108,3800.77,24,138.0,30.875,2.78501,-9.25327,-2.69655,2.7668,-9.23302,-2.48046,0.0286191,-0.00899659,-0.0230755,14.6322,43.2865,-4.32482,0.61099,0.73162,0.298894,-0.0456776,34.125,-1.33491,9.66957,0.528777,-1.39134,9.78597,0.802908,-0.02564,-0.0400311,-0.0228854,4.56193,-40.2516,19.9923,0.547314,-0.42115,-0.524233,-0.498257,31.6875,9.51485,-0.608217,-2.73187,9.53103,-0.454907,-2.34119,0.0104912,-0.0296917,-0.00533596,-44.7129,15.4691,1.09121,0.553406,0.370286,0.696799,0.266647
108,3800.78,24,138.0,30.875,2.89784,-8.9513,-2.77286,2.82733,-9.20325,-2.48059,0.0337514,0.024787,-0.0143975,14.1416,42.5684,-3.92577,0.611043,0.731645,0.298737,-0.045597,34.125,-1.14652,9.70611,0.454629,-1.42152,9.77095,0.803047,0.0163792,-0.0460197,-0.00863887,4.72204,-41.5464,19.2957,0.54726,-0.421391,-0.5241,-0.498252,31.6875,9.51545,-0.494311,-2.73257,9.47106,-0.470008,-2.31055,0.0197278,-0.00872992,0.00906422,-44.2008,15.3144,0.951363,0.553487,0.37022,0.696805,0.266555
108,3800.79,24,138.0,30.875,2.83002,-8.98664,-2.54283,2.82835,-9.1277,-2.43545,0.014807,0.0184931,-0.0181905,14.6467,42.5408,-4.84525,0.61116,0.731532,0.29878,-0.0455607,34.125,-1.22181,9.6313,0.492229,-1.43675,9.75591,0.787982,-0.0172487,-0.0791594,0.0029406,5.09131,-41.0448,19.8594,0.547542,-0.421604,-0.523827,-0.498049,31.6875,9.47272,-0.4545,-2.9262,9.4858,-0.379348,-2.38659,0.0282128,0.0154914,0.0219175,-44.4664,15.5839,0.524619,0.553749,0.369964,0.696761,0.266482
108,3800.8,24,138.0,30.875,2.86727,-9.06281,-2.54201,2.82847,-9.15787,-2.39008,0.0194223,0.0683084,-0.0340696,14.3902,42.8031,-4.32139,0.611313,0.73149,0.298615,-0.0452492,34.125,-1.30022,9.66867,0.413245,-1.45161,9.74078,0.833366,0.00193991,-0.0723411,-0.00631344,4.57838,-41.0257,19.7148,0.54756,-0.421832,-0.523613,-0.498061,31.6875,9.51734,-0.342758,-2.6949,9.47109,-0.379258,-2.31084,-0.00690995,0.0108872,0.00681487,-43.5598,15.542,1.66251,0.553457,0.370596,0.696728,0.266298
108,3800.81,24,138.0,30.875,2.6826,-8.83305,-2.46858,2.79921,-9.11229,-2.32975,-0.00228305,0.0392974,-0.0110573,13.8927,43.0775,-4.71575,0.611505,0.73133,0.298629,-0.0451576,34.125,-1.18399,9.51822,0.493282,-1.48144,9.71056,0.909021,0.134312,0.010249,-0.0200547,5.22945,-41.0493,19.2964,0.547394,-0.422125,-0.524027,-0.49756,31.6875,9.74629,-0.345466,-2.53818,9.56131,-0.28847,-2.29648,0.0562713,-0.037704,0.00573772,-43.8234,15.4235,0.668899,0.553506,0.370397,0.696848,0.266157
108,3800.82,24,138.0,30.875,2.87101,-8.91039,-2.4655,2.84468,-9.05224,-2.36013,-0.0131764,0.0219664,0.00411729,14.2658,43.0576,-4.71638,0.611562,0.731294,0.298603,-0.0451252,34.125,-1.4505,9.63201,0.488084,-1.46707,9.60488,0.908628,0.0361405,-0.0587068,0.00952542,4.83331,-41.1644,19.9993,0.54738,-0.422416,-0.523917,-0.497444,31.6875,9.48471,-0.267869,-2.54134,9.60661,-0.348886,-2.23598,0.0567942,-0.0214693,0.00589135,-43.8133,15.1668,1.09473,0.553549,0.370342,0.696898,0.266014
108,3800.83,24,138.0,30.875,2.72066,-8.98476,-2.42901,2.82948,-9.09741,-2.32981,-0.000696909,0.0369548,-0.00609864,14.2735,42.8087,-5.23982,0.611784,0.731074,0.298692,-0.0451003,34.125,-1.22285,9.66869,0.453368,-1.49661,9.60482,0.999481,0.032821,-0.0840048,0.00424277,4.70596,-40.6432,19.4315,0.547427,-0.422731,-0.523732,-0.49732,31.6875,9.59529,-0.382165,-2.57809,9.54622,-0.318742,-2.31143,0.0150338,0.0297511,0.0196533,-43.9445,15.0429,0.527083,0.553923,0.369959,0.696742,0.266178
108,3800.84,24,138.0,30.875,2.60595,-8.98422,-2.46922,2.75299,-9.18751,-2.37484,-0.0539997,0.0412752,0.0326178,14.1385,43.4365,-4.98089,0.61179,0.731109,0.298595,-0.0451088,34.125,-1.18235,9.70674,0.53142,-1.52611,9.71056,0.984854,0.00724739,-0.121054,0.00853569,4.96299,-41.6855,20.4262,0.547672,-0.423061,-0.523397,-0.497122,31.6875,9.63622,-0.345397,-2.46213,9.57607,-0.318791,-2.357,-0.00273094,0.00903107,-0.00028118,-43.8211,15.1651,0.385543,0.554145,0.369596,0.696687,0.266366
108,3800.85,24,138.0,30.875,2.60542,-9.0601,-2.46897,2.7383,-9.15719,-2.35979,-0.0324815,0.0489607,-0.00529059,14.6388,43.0377,-4.71702,0.611768,0.731195,0.298453,-0.0449396,34.125,-1.30003,9.74398,0.413004,-1.4806,9.77083,0.984754,0.0257093,-0.0606591,-0.0128151,5.22013,-41.0496,19.8604,0.5479,-0.423256,-0.523309,-0.496797,31.6875,9.52044,-0.381691,-2.57886,9.54609,-0.333904,-2.34165,-0.0499986,0.0228938,-0.00185105,-43.4246,14.8899,1.09642,0.554114,0.369733,0.696538,0.266627
108,3800.86,24,138.0,30.875,2.75417,-9.21336,-2.50471,2.72311,-9.09674,-2.43541,-0.0358236,0.0464593,-0.0029082,14.7637,43.155,-4.98045,0.611747,0.731244,0.298394,-0.0448272,34.125,-1.22986,10.0434,0.180976,-1.42185,9.8466,0.667255,0.0306882,-0.0180783,-0.0101451,5.09291,-41.3029,20.0019,0.547894,-0.423438,-0.52335,-0.496606,31.6875,9.66306,-0.684781,-2.76846,9.51596,-0.394429,-2.35644,-0.0304182,-0.0327792,0.022886,-44.7016,15.0832,1.37537,0.553959,0.369985,0.696539,0.266598
108,3800.87,24,138.0,30.875,2.82226,-9.14008,-2.73486,2.7226,-9.14206,-2.45041,-0.00275805,0.0331031,-0.0229619,14.0155,42.6992,-3.92631,0.611684,0.731358,0.298265,-0.0446791,34.125,-1.04506,9.58994,0.0309144,-1.48374,9.8018,0.425697,-0.0629256,0.0235989,-0.0126499,5.74545,-40.8101,19.0166,0.548282,-0.423153,-0.523438,-0.496328,31.6875,9.55047,-0.531875,-2.80916,9.56095,-0.454937,-2.37161,-0.010115,0.0145779,0.0351996,-43.8047,14.9097,1.37872,0.553992,0.370223,0.69643,0.266484
108,3800.88,24,138.0,30.875,2.7531,-8.98639,-2.58247,2.72335,-9.15707,-2.34467,0.0155728,0.0233167,-0.0556267,14.0165,43.1949,-4.84794,0.611925,0.731066,0.298501,-0.0445829,34.125,-1.04662,10.0123,1.22986,-1.37638,9.80107,0.772637,-0.071778,-0.00873986,-0.0326973,4.45153,-41.15,19.7146,0.54824,-0.423018,-0.52322,-0.49672,31.6875,9.59439,-0.343875,-2.61692,9.51595,-0.439804,-2.35629,-0.0423398,-0.030213,-0.00311667,-44.0707,15.0496,0.668463,0.553999,0.370053,0.696435,0.266692
108,3800.89,24,138.0,30.875,2.86192,-9.06415,-2.69604,2.72336,-9.09671,-2.40521,-0.0257282,0.0159019,-0.0254883,14.6511,42.5402,-5.37019,0.611965,0.730942,0.298722,-0.0445913,34.125,-1.20838,9.52145,0.957481,-1.3105,9.92052,1.60378,-0.225024,-0.0758108,0.0162883,4.46281,-41.2788,19.1514,0.548733,-0.422742,-0.522191,-0.497491,31.6875,9.55857,-0.458186,-2.5394,9.53117,-0.39437,-2.31111,-0.0256562,-0.0153057,0.00258121,-44.3336,15.1902,0.241879,0.554205,0.369625,0.696413,0.266916
108,3800.9,24,138.0,30.875,2.63974,-9.17488,-2.54504,2.69283,-9.15689,-2.38994,-0.0350331,0.0545383,-0.0435814,14.1292,43.5617,-4.063,0.61186,0.73109,0.298622,-0.0442719,34.125,-1.15771,9.36489,0.107047,-1.32981,9.58902,1.24023,-0.0911878,0.0218501,-0.010541,5.10886,-41.4316,19.1567,0.548942,-0.422468,-0.521934,-0.497763,31.6875,9.52075,-0.533886,-2.53932,9.53143,-0.364046,-2.25067,-0.00583677,-0.0347151,0.00166361,-43.8386,16.0676,0.526267,0.554007,0.369878,0.696435,0.266918
108,3800.91,24,138.0,30.875,2.60408,-9.06043,-2.50748,2.66295,-9.14155,-2.37485,-0.0153702,0.0158112,-0.00530164,14.5123,43.0446,-4.45434,0.611803,0.731178,0.298525,-0.0442565,34.125,-1.31301,9.59051,-0.0126627,-1.48586,9.43953,0.454883,-0.0164915,-0.0151274,-0.000437806,5.10886,-41.4316,19.1567,0.548954,-0.422487,-0.52194,-0.497728,31.6875,9.55668,-0.609739,-2.57707,9.54645,-0.379167,-2.2507,0.00791615,-0.0057881,0.0161504,-43.8187,15.4245,1.09441,0.55393,0.370142,0.696388,0.266833
108,3800.92,24,138.0,30.875,2.75444,-8.98606,-2.54396,2.66295,-9.09629,-2.42025,0.00283609,-0.0474075,-0.0346794,14.3851,43.1756,-4.32364,0.611697,0.731176,0.298724,-0.0444089,34.125,-1.26042,9.44315,0.492141,-1.51611,9.48498,0.379635,0.0267137,-0.0508731,-0.0105068,4.46208,-41.537,19.4348,0.548652,-0.422724,-0.521943,-0.497856,31.6875,9.36786,-0.722138,-2.6169,9.60647,-0.409423,-2.26606,0.0239761,0.0171508,0.0116813,-43.8218,15.4239,0.810737,0.554063,0.37013,0.696301,0.266801
108,3800.93,24,138.0,30.875,2.599,-9.02384,-2.66163,2.70753,-9.11177,-2.48066,-0.0442038,-0.0203277,0.00652471,13.6405,43.5871,-5.11202,0.611724,0.731013,0.299034,-0.0446417,34.125,-1.24983,9.55844,0.840447,-1.49696,9.62002,0.923965,0.0687936,-0.0501085,-0.039073,4.97022,-40.7817,19.1521,0.548713,-0.422936,-0.522064,-0.497482,31.6875,9.47912,-0.494395,-2.69435,9.53112,-0.364139,-2.32634,0.00164027,0.0389436,0.0000108451,-43.5652,15.2819,0.669972,0.554253,0.37,0.69617,0.266931
108,3800.94,24,138.0,30.875,2.7105,-9.10093,-2.69818,2.6936,-9.05119,-2.40528,-0.0801136,0.00553019,-0.00313672,14.3923,43.0507,-4.97906,0.611521,0.731135,0.299152,-0.0446393,34.125,-1.29127,9.59544,0.723413,-1.48003,9.61954,1.24123,0.0572347,-0.00413441,-0.00805279,5.61197,-40.8055,19.2977,0.548885,-0.423032,-0.522203,-0.497065,31.6875,9.77692,-0.381744,-2.76918,9.56117,-0.333882,-2.3266,0.0412529,0.00147998,-0.0254439,-44.0785,15.5658,0.951501,0.554224,0.369946,0.696245,0.266868
108,3800.95,24,138.0,30.875,2.7507,-9.13849,-2.62048,2.70778,-9.15701,-2.40506,-0.0485708,-0.000434303,0.00293188,14.1399,42.6926,-3.92652,0.611234,0.731439,0.298999,-0.0446114,34.125,-1.29003,9.63335,0.762033,-1.57008,9.68016,1.21172,0.122934,-0.0196007,-0.0761832,5.87673,-41.5894,19.586,0.549151,-0.423126,-0.52265,-0.496221,31.6875,9.59109,-0.342911,-2.73273,9.59116,-0.318769,-2.34194,0.0175577,-0.0211045,-0.0139019,-44.3254,15.3215,1.23458,0.55408,0.37003,0.696341,0.2668
108,3800.96,24,138.0,30.875,2.67538,-9.09996,-2.62174,2.76769,-9.1424,-2.46556,-0.0724268,-0.0342081,-0.0235379,14.3945,43.0504,-5.24153,0.61105,0.731419,0.299404,-0.0447336,34.125,-1.25351,9.89628,0.684398,-1.51004,9.80097,1.06058,0.092525,-0.0477134,-0.0342551,5.3552,-41.3123,19.7218,0.549241,-0.423407,-0.5228,-0.495722,31.6875,9.55547,-0.419254,-2.65544,9.57608,-0.273416,-2.35714,0.0181278,-0.00470873,0.000432601,-43.9414,15.0436,0.810757,0.554175,0.36984,0.696339,0.266873
108,3800.97,24,138.0,30.875,2.64294,-9.09833,-2.46828,2.73754,-9.17236,-2.43526,-0.0381505,-0.0412401,-0.0274952,13.889,42.7062,-3.66363,0.610711,0.731674,0.299468,-0.0447691,34.125,-1.18518,9.93189,0.414474,-1.40491,9.87635,0.954379,0.0526983,-0.0346991,-0.0333924,4.85159,-41.293,19.0132,0.54914,-0.423671,-0.522794,-0.495615,31.6875,9.70828,-0.459134,-2.53786,9.56086,-0.333975,-2.40227,0.0405369,0.0280262,0.0197043,-43.948,15.4306,0.952117,0.554312,0.369855,0.696282,0.266715
108,3800.98,24,138.0,30.875,2.64161,-9.09867,-2.50679,2.66231,-9.1718,-2.42008,-0.0253823,0.0000769218,0.00659363,14.1426,42.8162,-4.45221,0.610638,0.731738,0.299446,-0.0448665,34.125,-1.18508,9.96954,0.414353,-1.37497,9.96701,0.83356,-0.0144856,-0.0453181,-0.040988,4.95966,-40.3947,19.4318,0.549322,-0.42375,-0.522649,-0.495499,31.6875,9.67164,-0.307023,-2.53918,9.59123,-0.273376,-2.32695,-2.81987e-6,0.0138728,0.00528557,-43.7023,15.8041,0.810716,0.554238,0.370093,0.696197,0.266762
108,3800.99,24,138.0,30.875,2.49098,-9.02162,-2.5093,2.70778,-9.20227,-2.35966,-0.0308768,-0.0326455,-0.0237804,14.5117,43.1687,-4.58632,0.610513,0.731771,0.299607,-0.0449523,34.125,-1.22056,9.66921,0.530849,-1.43561,9.90679,0.818639,-0.0546856,-0.0135244,-0.0368773,4.59752,-41.6707,19.1545,0.549243,-0.423686,-0.522441,-0.49586,31.6875,9.48022,-0.494717,-2.65575,9.57626,-0.318735,-2.31159,-0.00320009,-0.0337979,0.0190094,-43.6832,14.902,0.81183,0.554251,0.370037,0.69619,0.266829
108,3801.0,24,138.0,30.875,2.59926,-8.79654,-2.70088,2.72374,-9.08158,-2.37504,-0.0202044,0.0161622,-0.0496401,14.514,42.9205,-4.45359,0.610466,0.731792,0.299681,-0.0447664,34.125,-1.21828,9.66973,0.608331,-1.45098,9.75575,0.924081,-0.109613,0.0120425,-0.0134754,5.35091,-41.1833,19.862,0.549558,-0.423357,-0.52221,-0.496035,31.6875,9.51835,-0.571212,-2.61629,9.53144,-0.333796,-2.25077,0.004039,-0.0195643,0.00734585,-44.6984,14.5659,0.666816,0.554545,0.369554,0.696068,0.267207
108,3801.01,24,138.0,30.875,2.7228,-8.87061,-2.39088,2.70917,-9.05125,-2.34489,-0.0169747,-0.0263724,-0.0175471,13.7661,43.0845,-4.45307,0.610463,0.731707,0.299875,-0.0448849,34.125,-1.18016,9.66961,0.609022,-1.49576,9.69531,1.04508,-0.104445,0.00285835,-0.0406467,4.59273,-40.8962,18.7271,0.549637,-0.423019,-0.521959,-0.4965,31.6875,9.63213,-0.496308,-2.577,9.51647,-0.379155,-2.2354,-0.0402822,0.0309983,0.0266091,-44.0754,15.5665,1.23518,0.554431,0.370089,0.695854,0.267259
108,3801.02,24,138.0,30.875,2.55266,-9.10144,-2.89298,2.70879,-9.14182,-2.29939,-0.0883664,-0.0293799,-0.0202478,13.6407,42.8433,-3.92643,0.61011,0.731967,0.299964,-0.0448507,34.125,-1.29804,9.63153,0.490847,-1.49593,9.7407,0.969647,-0.0987074,0.0268693,-0.0154238,4.97109,-41.298,19.578,0.54973,-0.422667,-0.5218,-0.496865,31.6875,9.5894,-0.456496,-2.77063,9.56141,-0.379183,-2.26591,0.02072,-0.0046659,0.0122559,-44.2202,16.087,0.666734,0.554382,0.370291,0.695821,0.267169
108,3801.03,24,138.0,30.875,2.63893,-9.09934,-2.5838,2.73766,-9.23269,-2.35962,-0.0530088,-0.0143265,-0.0126153,14.6299,43.5348,-4.45755,0.60991,0.732123,0.299993,-0.0448434,34.125,-1.3369,9.78201,0.450933,-1.48107,9.7407,0.939332,-0.089842,0.000615344,-0.0138866,5.11046,-41.6897,19.2992,0.549897,-0.422417,-0.521584,-0.497119,31.6875,9.55567,-0.381285,-2.65568,9.50126,-0.379214,-2.28073,0.00227034,0.0056015,-0.000300181,-44.1852,14.282,0.385287,0.554874,0.369544,0.695632,0.267674
108,3801.04,24,138.0,30.875,2.48751,-9.13611,-2.58594,2.70689,-9.21745,-2.45023,-0.0216276,-0.0432902,-0.0214964,14.5135,42.7966,-4.19037,0.609706,0.732249,0.300081,-0.0449507,34.125,-1.18444,9.78153,0.453697,-1.42179,9.77101,0.757711,-0.129055,-0.035791,-0.0033427,5.49064,-41.446,19.4415,0.550385,-0.422204,-0.521179,-0.497185,31.6875,9.52115,-0.457949,-2.53979,9.53118,-0.379245,-2.31116,0.021593,0.0243242,-0.00795113,-43.6836,14.7724,0.528314,0.555181,0.369108,0.695561,0.267823
108,3801.05,24,138.0,30.875,2.67832,-9.06135,-2.54485,2.67752,-9.12663,-2.4504,-0.0294427,0.000511839,-0.0352252,14.2658,42.8097,-4.32118,0.609594,0.732308,0.300175,-0.0448881,34.125,-1.30003,9.74398,0.413004,-1.46699,9.80136,0.712734,-0.105164,-0.0497714,-0.0340547,5.23914,-40.9199,18.5907,0.550813,-0.422008,-0.520868,-0.497203,31.6875,9.5949,-0.458102,-2.57762,9.53111,-0.394388,-2.32625,-0.0102877,-0.0417344,0.0134021,-44.7187,15.5973,0.80738,0.555019,0.369287,0.695628,0.267734
108,3801.06,24,138.0,30.875,2.56816,-8.98393,-2.46979,2.64674,-9.14157,-2.51074,-0.0642053,-0.0472916,-0.0480852,13.8905,43.0778,-4.45328,0.609353,0.732338,0.30058,-0.0449737,34.125,-1.29958,9.48066,0.452589,-1.452,9.6653,0.848262,-0.129932,-0.0286454,0.00643023,4.97182,-41.0398,19.2946,0.551045,-0.421791,-0.520439,-0.497579,31.6875,9.70537,-0.382234,-2.65414,9.54619,-0.394367,-2.31119,-0.00986165,0.02628,-0.00644009,-43.9266,14.27,0.669875,0.555379,0.368804,0.69544,0.268144
108,3801.07,24,138.0,30.875,2.56202,-9.28845,-2.58431,2.61672,-9.21678,-2.41994,-0.112016,-0.0443155,-0.031066,14.0083,43.0721,-3.66609,0.608772,0.732784,0.300674,-0.0449382,34.125,-1.44403,9.48295,0.721011,-1.52688,9.58982,0.984508,-0.0662696,-0.00339638,-0.0155056,5.09241,-40.6575,19.4342,0.551227,-0.421565,-0.520311,-0.497703,31.6875,9.55987,-0.420539,-2.50103,9.54641,-0.303561,-2.26608,0.0296113,0.00861464,-0.00650187,-44.5801,15.0754,0.808474,0.555507,0.368611,0.695422,0.268191
108,3801.08,24,138.0,30.875,2.7097,-9.21474,-2.69781,2.67624,-9.29273,-2.43493,-0.0579166,-0.0682906,-0.0553657,14.5105,43.4168,-4.85029,0.608566,0.73274,0.301174,-0.0450962,34.125,-1.17892,9.70752,0.647642,-1.52632,9.65014,1.0149,-0.0740079,0.00909652,-0.0244116,5.07989,-40.1415,19.7132,0.55145,-0.421272,-0.520208,-0.497812,31.6875,9.67065,-0.496866,-2.53801,9.54645,-0.394292,-2.25065,0.0027683,-0.00430394,-0.0122078,-44.7031,15.0828,1.23353,0.555415,0.368722,0.695448,0.268161
108,3801.09,24,138.0,30.875,2.71505,-9.2134,-2.54379,2.70626,-9.29296,-2.45006,-0.0472748,-0.0613326,-0.0524953,14.3813,43.3001,-4.06193,0.608265,0.73288,0.301435,-0.0451467,34.125,-1.14787,9.63054,0.416129,-1.46667,9.69548,0.878663,-0.0725059,0.0128203,-0.00842002,5.10996,-41.0443,18.7315,0.551537,-0.421069,-0.520069,-0.498032,31.6875,9.63193,-0.534276,-2.57677,9.54637,-0.439686,-2.26564,0.0499432,0.0039596,0.00532406,-44.0742,15.4373,1.0935,0.555372,0.36893,0.695485,0.267867
108,3801.1,24,138.0,30.875,2.91202,-9.21285,-2.30991,2.72259,-9.26276,-2.32934,-0.0469466,-0.0492118,-0.0378946,13.7627,43.5808,-4.84977,0.608266,0.73268,0.301893,-0.045305,34.125,-1.26221,9.6309,0.414057,-1.4219,9.71057,0.802874,-0.0733606,0.00818138,0.014284,5.64007,-41.5793,18.3152,0.551773,-0.420909,-0.519919,-0.498063,31.6875,9.47853,-0.608301,-2.69365,9.54607,-0.394404,-2.34146,0.0224873,-0.00305858,0.0162143,-43.5523,14.8963,1.09596,0.55536,0.369052,0.695504,0.267675
108,3801.11,24,138.0,30.875,2.79116,-9.13811,-2.5429,2.72297,-9.17219,-2.37484,-0.00891056,-0.122416,-0.0180355,14.2658,42.8097,-4.32118,0.608069,0.732666,0.302258,-0.0457432,34.125,-1.10622,9.66885,0.532922,-1.39201,9.69543,0.787537,-0.116926,-0.00726909,0.00506564,5.88445,-41.331,18.8796,0.552296,-0.420664,-0.51963,-0.497992,31.6875,9.56176,-0.268986,-2.46337,9.54614,-0.34901,-2.32647,0.0201004,-0.0241208,0.014435,-43.2965,15.0131,1.38039,0.555122,0.369448,0.695598,0.267377
108,3801.12,24,138.0,30.875,2.72467,-8.98375,-2.31349,2.79807,-9.20294,-2.37485,-0.0868413,-0.0911786,-0.0481264,14.514,42.9205,-4.45359,0.607653,0.73284,0.302658,-0.0458338,34.125,-1.17787,9.67013,0.686504,-1.34573,9.64972,1.02893,-0.11849,0.0100399,-0.0335535,5.74508,-40.9392,19.1584,0.552837,-0.420307,-0.519379,-0.497954,31.6875,9.63083,-0.533955,-2.61537,9.53113,-0.333889,-2.32644,-0.0409646,0.0120511,0.00200973,-44.1976,15.3151,1.23504,0.554954,0.369793,0.695511,0.267476
108,3801.13,24,138.0,30.875,2.75684,-9.02333,-2.46683,2.7987,-9.18779,-2.31448,-0.0841835,-0.052534,-0.0435018,14.011,42.9477,-3.79658,0.607243,0.733119,0.302818,-0.0457519,34.125,-1.10165,9.66989,0.687885,-1.42001,9.71013,1.12023,-0.0829583,0.013385,-0.0331837,4.72314,-41.1591,18.8705,0.552844,-0.420042,-0.519187,-0.498371,31.6875,9.5914,-0.495107,-2.6932,9.56135,-0.348951,-2.28115,-0.0252838,-0.0292519,-0.0077892,-43.8164,15.1661,0.811055,0.554821,0.369856,0.695535,0.267603
108,3801.14,24,138.0,30.875,2.83429,-8.9477,-2.42743,2.79934,-9.14246,-2.28438,-0.0584936,-0.0659507,-0.0310654,14.0187,42.9467,-4.71521,0.607107,0.73306,0.30321,-0.0458993,34.125,-1.24923,9.78436,0.839723,-1.37477,9.77046,1.07479,-0.0939135,-0.0069518,-0.0409145,5.22712,-41.0494,19.4374,0.55317,-0.419787,-0.518949,-0.498471,31.6875,9.55366,-0.342674,-2.73312,9.56115,-0.394382,-2.3264,-0.00633865,0.00123219,0.0169664,-44.3226,15.1926,1.23474,0.554766,0.370073,0.695491,0.267533
108,3801.15,24,138.0,30.875,2.79169,-9.06223,-2.54315,2.89026,-9.14305,-2.22407,-0.0665431,-0.0580028,-0.0108596,14.5117,43.1687,-4.58632,0.606886,0.733165,0.303388,-0.0459749,34.125,-1.21952,9.63181,0.569711,-1.40568,9.72538,0.98417,-0.0571358,-0.0244785,-0.0592234,5.7565,-41.8426,19.3046,0.553659,-0.419603,-0.518836,-0.498201,31.6875,9.55366,-0.342674,-2.73312,9.50113,-0.379251,-2.311,-0.0132981,-0.0554873,0.00932655,-43.8102,15.1675,1.3784,0.554415,0.37049,0.695616,0.267358
108,3801.16,24,138.0,30.875,3.02003,-9.0257,-2.50136,2.90546,-9.15824,-2.19385,-0.0200538,-0.0472604,-0.0149193,14.3868,43.0514,-4.32289,0.606824,0.733179,0.303471,-0.0460306,34.125,-1.22275,9.70634,0.453247,-1.45144,9.71052,0.893727,-0.0560501,0.0671255,-0.0497455,4.84766,-41.0349,19.0117,0.553514,-0.419234,-0.518951,-0.498554,31.6875,9.52225,-0.45827,-2.50119,9.5315,-0.364027,-2.23553,0.00279969,-0.00347432,-0.0106245,-44.33,15.3205,0.809069,0.554462,0.370374,0.695592,0.267482
108,3801.17,24,138.0,30.875,3.02378,-9.06264,-2.38572,2.94928,-9.23415,-2.28433,-0.057424,-0.090042,-0.02598,13.6385,43.0916,-4.05916,0.606587,0.733232,0.303794,-0.0461757,34.125,-1.32586,9.63398,0.838824,-1.54141,9.74088,0.909471,-0.105668,0.023312,-0.038928,4.73443,-41.2879,18.3073,0.553478,-0.418866,-0.51879,-0.499069,31.6875,9.63342,-0.45866,-2.53863,9.50149,-0.454765,-2.21995,-0.0328458,-0.0264802,-0.00226894,-43.6859,15.0308,0.811671,0.55441,0.370384,0.695569,0.267636
108,3801.18,24,138.0,30.875,2.93403,-9.17923,-2.77155,2.93383,-9.26426,-2.29935,0.00421593,-0.106369,-0.0206884,14.0121,42.9476,-3.92781,0.60646,0.73322,0.304033,-0.046458,34.125,-1.36646,9.55828,0.760893,-1.55637,9.71067,0.954812,-0.116514,0.0721864,0.00816612,5.11192,-41.1733,18.7323,0.553438,-0.418398,-0.518701,-0.499599,31.6875,9.63213,-0.496308,-2.577,9.51652,-0.424512,-2.22012,-0.000953404,-0.0378248,-0.0416783,-43.5586,14.8949,0.528612,0.554434,0.369977,0.695689,0.267839
108,3801.19,24,138.0,30.875,2.90453,-9.32834,-2.50207,2.93345,-9.24921,-2.35979,0.016932,-0.103165,-0.0337885,13.8879,42.7063,-3.5324,0.606288,0.733265,0.304234,-0.046682,34.125,-1.36855,9.63307,0.68317,-1.54082,9.65005,1.10567,-0.0936166,0.0197619,-0.0264388,5.11046,-41.6897,19.2992,0.553575,-0.418022,-0.518573,-0.499895,31.6875,9.52374,-0.382654,-2.46305,9.53126,-0.303602,-2.29627,0.0512305,-0.0307971,-0.0454138,-43.7027,15.6746,0.527201,0.554337,0.369772,0.695894,0.267788
108,3801.2,24,138.0,30.875,2.78421,-9.17772,-2.73531,2.87292,-9.23371,-2.40506,-0.0299328,-0.109544,-0.0529896,14.2636,43.0579,-4.45392,0.606087,0.73321,0.304733,-0.0469059,34.125,-1.4912,9.51865,0.410273,-1.60164,9.58988,1.06052,-0.0487418,0.00467424,-0.0431629,5.2411,-41.049,18.5915,0.553764,-0.417729,-0.518592,-0.49991,31.6875,9.55567,-0.381285,-2.65568,9.54622,-0.318742,-2.31143,-0.000816026,-0.00913311,-0.0193522,-44.0718,15.1788,0.810141,0.554319,0.369658,0.695922,0.26791
108,3801.21,24,138.0,30.875,2.94179,-9.21515,-2.54038,2.88711,-9.29427,-2.45025,-0.0656702,-0.0912867,-0.0654009,13.6424,42.9671,-4.32088,0.605828,0.733187,0.305288,-0.0469981,34.125,-1.37466,9.48116,0.489948,-1.52736,9.51435,0.984291,-0.0488006,-0.0227461,-0.0277837,5.87856,-40.9438,18.8773,0.554264,-0.417565,-0.518516,-0.499571,31.6875,9.56266,-0.307275,-2.42453,9.62138,-0.364082,-2.29655,-0.0111021,-0.0386895,-0.00705264,-44.191,14.9281,1.09368,0.554188,0.369696,0.695982,0.267972
108,3801.22,24,138.0,30.875,2.79223,-9.17571,-2.50427,2.85848,-9.18827,-2.37494,-0.0433563,-0.0940227,-0.0576775,13.769,42.7122,-4.18835,0.605603,0.733177,0.305738,-0.047121,34.125,-1.29316,9.74553,0.645449,-1.51183,9.6049,0.969348,-0.0626925,-0.0175862,-0.0045535,5.38011,-41.5698,18.4544,0.554438,-0.417453,-0.518329,-0.499667,31.6875,9.55397,-0.49487,-2.69358,9.54627,-0.348973,-2.2962,-0.0565502,-0.021596,-0.00464874,-44.3223,14.8042,0.526031,0.554268,0.369429,0.695907,0.268371
108,3801.23,24,138.0,30.875,2.94259,-9.2907,-2.50163,2.90319,-9.20374,-2.42026,-0.0596995,-0.110457,-0.0968589,13.8921,43.2016,-4.84773,0.605408,0.732988,0.306561,-0.0472329,34.125,-1.14518,9.78167,0.493129,-1.49576,9.69531,1.04508,-0.0614165,0.00158582,-0.0523503,5.24197,-41.5653,19.0174,0.554634,-0.41719,-0.518267,-0.499733,31.6875,9.48372,-0.457712,-2.54017,9.57631,-0.364092,-2.29631,-0.0464694,-0.0238531,-0.0282755,-43.698,15.1577,-0.0395115,0.55435,0.36897,0.695967,0.268676
108,3801.24,24,138.0,30.875,2.97209,-9.14158,-2.7711,2.90079,-9.30961,-2.60123,-0.0820745,-0.0787029,-0.0835921,13.7661,43.3324,-4.84827,0.60515,0.732894,0.307287,-0.0472757,34.125,-1.29088,9.74605,0.722931,-1.46448,9.77054,1.16601,-0.0425859,-0.00441236,-0.0397501,5.3547,-40.6669,19.1541,0.554897,-0.417036,-0.518183,-0.499657,31.6875,9.59179,-0.41917,-2.69366,9.50114,-0.349002,-2.3111,0.0280348,0.0134386,-0.0159136,-44.459,15.456,0.95029,0.554356,0.368968,0.695986,0.268619
108,3801.25,24,138.0,30.875,2.81478,-9.25557,-2.92702,3.00579,-9.29533,-2.67688,-0.0865324,-0.0876432,-0.101486,13.8888,43.202,-4.45403,0.604755,0.732929,0.307991,-0.047204,34.125,-1.254,9.70802,0.685001,-1.37412,9.83077,1.1203,-0.0966198,-0.0289866,-0.0454564,5.4969,-41.704,19.302,0.555336,-0.416835,-0.517873,-0.499658,31.6875,9.70718,-0.458813,-2.57646,9.531,-0.333926,-2.35671,0.0195787,-0.0128512,0.00351101,-43.941,15.1731,1.09427,0.554257,0.369112,0.696048,0.268462
108,3801.26,24,138.0,30.875,2.77298,-9.44565,-3.00398,2.90029,-9.32475,-2.6465,-0.10065,-0.0944773,-0.0977135,13.7639,43.0848,-4.1906,0.604263,0.733067,0.308634,-0.0471567,34.125,-1.22066,9.63156,0.53097,-1.50949,9.84619,1.10605,-0.0860892,0.00463622,-0.0102404,5.23841,-41.1782,18.8742,0.555481,-0.41661,-0.517661,-0.499904,31.6875,9.59569,-0.306228,-2.57855,9.53124,-0.364101,-2.29607,0.0286688,-0.04739,-0.00387861,-43.6933,15.1587,0.386,0.554281,0.36885,0.696203,0.268373
108,3801.27,24,138.0,30.875,2.74161,-9.29226,-2.85102,2.88497,-9.29449,-2.70696,-0.0403805,-0.103596,-0.0729884,13.8845,42.9547,-3.5339,0.603799,0.733284,0.309014,-0.0472408,34.125,-1.29346,9.63257,0.645811,-1.50981,9.71023,1.19633,-0.0675401,0.00226319,-0.0468744,5.48941,-41.0588,19.1573,0.555806,-0.416329,-0.517568,-0.499873,31.6875,9.59749,-0.382807,-2.50088,9.57639,-0.318698,-2.28132,-0.0216221,0.00189632,0.027173,-43.9422,15.3024,1.23595,0.554117,0.369323,0.696105,0.268315
108,3801.28,24,138.0,30.875,2.77619,-9.17974,-2.96634,2.79392,-9.2939,-2.78237,-0.050835,-0.0539126,-0.084055,13.1426,43.2419,-4.45276,0.603652,0.733128,0.309664,-0.0472866,34.125,-1.37054,9.74551,0.605326,-1.5707,9.71053,1.0758,-0.0665401,0.0377529,-0.0567068,4.73676,-41.2879,18.1663,0.555679,-0.415977,-0.517567,-0.500308,31.6875,9.52165,-0.572176,-2.50048,9.54632,-0.409454,-2.28087,-0.0221816,-0.0159083,0.031731,-44.1941,14.9274,0.810003,0.554195,0.369338,0.696008,0.268384
108,3801.29,24,138.0,30.875,2.77966,-9.06525,-2.8897,2.7349,-9.2179,-2.70697,-0.0056004,-0.0880427,-0.0770456,13.5169,42.9739,-4.18943,0.6035,0.733003,0.310223,-0.0474973,34.0625,-1.48508,9.67056,0.603495,-1.57123,9.72577,0.970058,-0.0706237,0.00406114,-0.0538262,5.50267,-41.3166,18.5948,0.555975,-0.415648,-0.517547,-0.500273,31.6875,9.67305,-0.45954,-2.46104,9.5467,-0.394218,-2.19011,0.0512296,-0.00980245,0.0138635,-44.2023,15.3141,0.809525,0.5543,0.369289,0.696013,0.26822
108,3801.3,24,138.0,30.875,2.70836,-9.02572,-2.77544,2.75098,-9.14246,-2.66185,-0.00694342,-0.0991348,-0.084106,14.1408,43.1883,-4.84815,0.603379,0.732794,0.310913,-0.0477486,34.0625,-1.36417,9.5588,0.838374,-1.58656,9.68053,0.970019,-0.0721264,-0.05233,-0.0269609,5.64277,-41.4501,18.0325,0.55638,-0.415502,-0.517333,-0.500166,31.6875,9.55807,-0.343959,-2.57871,9.51644,-0.258174,-2.25093,-0.0390954,0.0168964,0.00521105,-43.9332,15.1749,1.80346,0.55397,0.369946,0.69595,0.268164
108,3801.31,24,138.0,30.875,2.82119,-8.91311,-2.81262,2.81215,-9.08245,-2.61674,0.0181182,-0.0758526,-0.104753,14.1381,43.0647,-4.32247,0.603302,0.732636,0.31143,-0.0477766,34.0625,-1.29605,9.51909,0.568691,-1.54092,9.61984,1.12069,-0.0780141,-0.0245566,-0.0231541,5.90127,-41.976,18.4603,0.556805,-0.41528,-0.517144,-0.500073,31.6875,9.55547,-0.419254,-2.65544,9.57669,-0.348855,-2.20555,0.00180237,-0.00900085,0.000349385,-43.9453,15.3017,0.952276,0.553916,0.370066,0.695911,0.268209
108,3801.32,24,138.0,30.875,2.78634,-8.87421,-2.7363,2.87307,-9.00738,-2.61697,-0.00448655,-0.0760501,-0.0975339,13.6418,43.0911,-4.45286,0.603213,0.732445,0.312045,-0.0478202,34.0625,-1.16539,9.63532,1.11277,-1.52534,9.60457,1.22634,-0.0657459,-0.0398113,-0.0357079,5.26221,-41.823,18.032,0.557011,-0.415161,-0.516879,-0.500216,31.6875,9.62922,-0.419407,-2.69328,9.54628,-0.318723,-2.2963,-0.0409724,-0.0422532,0.0141043,-44.0715,15.3084,1.09366,0.55365,0.370416,0.695918,0.268258
108,3801.33,24,138.0,30.875,2.81825,-8.95172,-2.88951,2.85801,-8.90165,-2.72289,-0.0118311,-0.0367255,-0.0921824,13.392,43.1045,-4.3212,0.603123,0.732308,0.312552,-0.0477399,34.0625,-1.28317,9.6349,0.994478,-1.46472,9.63456,1.2714,-0.0961317,-0.0476916,-0.0172227,5.38207,-41.6989,18.4551,0.557333,-0.41503,-0.516471,-0.500387,31.6875,9.67184,-0.269054,-2.53942,9.53094,-0.303694,-2.37194,-0.00750868,-0.0070515,-0.000444578,-43.9422,15.3024,1.23595,0.553491,0.370645,0.695932,0.268231
108,3801.34,24,138.0,30.875,2.71183,-8.91123,-2.6988,2.79734,-8.99179,-2.67733,-0.0598433,-0.0443803,-0.0963989,13.2626,43.2358,-3.92804,0.602792,0.732396,0.313008,-0.0475899,34.0625,-1.0279,9.59383,0.612027,-1.40398,9.70986,1.28637,-0.0523865,-0.0625,-0.0112198,5.62252,-41.1925,19.0179,0.557732,-0.415099,-0.516103,-0.500265,31.6875,9.55347,-0.380643,-2.73288,9.53139,-0.28844,-2.26605,-0.0609489,-0.0255473,-0.00863606,-44.0711,15.438,1.37717,0.553106,0.371143,0.695909,0.268397
108,3801.35,24,138.0,30.875,2.81932,-8.98933,-2.85088,2.79696,-9.03709,-2.67723,-0.033597,-0.045952,-0.0793949,13.7644,43.2087,-4.45382,0.602601,0.732367,0.313446,-0.0475623,34.0625,-1.18424,9.85684,0.453456,-1.42109,9.71038,0.938882,-0.0802735,0.0265538,-0.0350901,5.9036,-41.9759,18.3193,0.558031,-0.414812,-0.516041,-0.500235,31.6875,9.63213,-0.496308,-2.577,9.54619,-0.424616,-2.31109,-0.0160891,-0.0077109,-0.0138649,-43.4398,15.534,0.953785,0.552952,0.371347,0.695903,0.268447
108,3801.36,24,138.0,30.875,2.74508,-8.98841,-2.81351,2.79747,-8.94651,-2.70763,-0.029436,-0.0475277,-0.0785558,13.5174,43.0978,-4.45265,0.602433,0.732297,0.313932,-0.0475645,34.0625,-1.49503,9.36726,0.294533,-1.54276,9.7412,0.682791,-0.0927492,0.0547728,-0.0160688,5.51628,-41.4453,17.8906,0.558042,-0.414459,-0.516045,-0.500511,31.6875,9.55417,-0.456901,-2.69381,9.5765,-0.348911,-2.25096,0.00913823,0.00773061,-0.00577631,-43.9203,14.2713,1.23722,0.55318,0.371046,0.695766,0.268751
108,3801.37,24,138.0,30.875,2.9391,-8.8371,-2.69565,2.79759,-8.96158,-2.67739,-0.0553444,-0.0527371,-0.0690352,13.7661,43.3324,-4.84827,0.602212,0.732247,0.314466,-0.0476064,34.0625,-1.26914,9.75097,1.45901,-1.54304,9.48431,0.908736,-0.103147,0.0258762,-0.00850466,5.51911,-42.0907,18.3173,0.558128,-0.414128,-0.515905,-0.500833,31.6875,9.70718,-0.458813,-2.57646,9.60648,-0.348923,-2.26625,0.00964534,-0.0281988,-0.0195035,-44.5949,15.8491,0.949356,0.553009,0.371158,0.695838,0.268759
108,3801.38,24,138.0,30.875,2.77377,-8.95311,-3.08261,2.81292,-8.9164,-2.69261,-0.0180757,-0.0502747,-0.064291,13.1394,43.2423,-4.05906,0.602044,0.732217,0.31485,-0.0476492,34.0625,-1.31452,9.59892,1.22635,-1.53747,9.69461,1.6196,-0.123967,-0.00369627,-0.0079402,5.37778,-41.5699,18.5954,0.558413,-0.413769,-0.515517,-0.501211,31.6875,9.59549,-0.344196,-2.57832,9.54642,-0.273311,-2.26618,0.00410563,-0.0432245,-0.000753243,-43.9391,14.7851,0.527401,0.553136,0.37075,0.695882,0.26895
108,3801.39,24,137.0,30.875,2.81798,-8.98966,-2.88939,2.84255,-8.99211,-2.67737,0.0105775,-0.0328077,-0.0558325,13.392,42.8566,-3.926,0.601949,0.732213,0.315041,-0.0476522,34.0625,-1.44746,9.48217,0.604789,-1.56907,9.49854,1.57389,-0.0491011,-0.00812571,0.0126077,5.12358,-41.173,18.0273,0.558415,-0.413667,-0.51528,-0.501537,31.6875,9.62773,-0.495023,-2.73141,9.57633,-0.303592,-2.29651,-0.0190604,-0.0184405,-0.0376055,-43.8098,14.7791,0.669695,0.553183,0.370379,0.69591,0.269289
108,3801.4,24,137.0,30.875,2.81637,-8.83857,-2.96689,2.81202,-9.06737,-2.64698,0.0128137,-0.0160268,-0.0552616,13.1426,43.2419,-4.45276,0.602043,0.732,0.315352,-0.0476891,34.0625,-1.30386,9.59258,0.297264,-1.52743,9.57483,0.908905,0.0282356,-0.0311313,-0.013108,5.91722,-42.1046,17.6151,0.558562,-0.413803,-0.51536,-0.501178,31.6875,9.70357,-0.305654,-2.73181,9.51623,-0.333855,-2.29609,0.0181721,-0.0552226,-0.0110693,-44.2128,15.9592,1.0924,0.552812,0.370766,0.696064,0.269122
108,3801.41,24,137.0,30.875,2.85951,-8.83752,-2.8123,2.82723,-9.00712,-2.69243,-0.0116018,-0.0333216,-0.0302353,13.3881,43.229,-4.05948,0.601885,0.732062,0.315498,-0.0477621,34.0625,-1.38018,9.55517,0.296003,-1.52849,9.60531,0.697423,0.0177177,-0.0343821,-0.0152499,4.98261,-40.5231,18.1637,0.558385,-0.41398,-0.515385,-0.501203,31.6875,9.59349,-0.305585,-2.65576,9.56118,-0.303632,-2.3267,-0.0264577,-0.0107715,-0.0296757,-43.943,15.0432,0.66892,0.55283,0.37051,0.696072,0.269417
108,3801.42,24,137.0,30.875,2.78367,-8.87488,-2.81331,2.88827,-8.94712,-2.66242,-0.0333542,-0.00622913,-0.00457683,13.1371,43.4905,-4.19179,0.601762,0.732136,0.315559,-0.0477826,34.0625,-1.35721,9.59801,1.0707,-1.5419,9.63519,0.939392,0.0139035,-0.0173702,-0.0415237,4.98813,-41.0394,18.3076,0.558259,-0.414015,-0.515465,-0.501232,31.6875,9.5927,-0.457459,-2.65483,9.51617,-0.333873,-2.31123,-0.00735839,-0.0282587,-0.00694497,-44.073,15.3081,0.951819,0.552706,0.370576,0.696124,0.269445
108,3801.43,24,137.0,30.875,2.89677,-8.9137,-2.81149,2.87332,-8.947,-2.6473,-0.0658253,-0.0274628,-0.0257407,13.0128,43.2492,-3.79638,0.601424,0.732363,0.315681,-0.0477375,34.0625,-1.43916,9.59695,0.875613,-1.65979,9.66512,1.31801,0.0567663,0.0192057,-0.0589044,4.86018,-41.5509,18.7327,0.55799,-0.413935,-0.515784,-0.50127,31.6875,9.63063,-0.571923,-2.61514,9.56135,-0.348951,-2.28115,-0.0208119,-0.0228834,-0.00535449,-43.9316,14.6573,0.953072,0.552741,0.370423,0.69609,0.269672
108,3801.44,24,137.0,30.875,2.78046,-8.95143,-2.89008,2.9341,-8.99265,-2.54156,-0.0394009,-0.0333563,-0.0138875,13.89,42.9539,-4.19007,0.601194,0.732548,0.315693,-0.0477227,34.0625,-1.3593,9.67279,0.992976,-1.66027,9.60477,1.30272,0.109474,0.0283654,-0.0255884,5.26381,-42.0811,18.1745,0.557628,-0.414079,-0.516185,-0.501142,31.6875,9.55857,-0.458186,-2.5394,9.60649,-0.318673,-2.26635,-0.0787565,-0.0246934,0.0102308,-43.6929,15.2883,0.669515,0.552587,0.37064,0.695981,0.26997
108,3801.45,24,137.0,30.875,2.74,-8.95181,-2.96766,2.81253,-9.08241,-2.57144,-0.0343223,-0.0235235,-0.0243665,13.5163,43.0979,-4.32141,0.601057,0.732605,0.315817,-0.0477551,34.0625,-1.3596,9.55983,0.993338,-1.56928,9.64974,1.37787,0.0668569,0.0542942,-0.0163769,5.62915,-41.3214,18.7367,0.557488,-0.414078,-0.516514,-0.500959,31.6875,9.63193,-0.534276,-2.57677,9.54659,-0.333755,-2.22058,-0.0459567,-0.0640984,0.00679663,-43.9441,15.1725,0.810598,0.55237,0.370795,0.696014,0.270116
108,3801.46,24,137.0,30.875,2.70568,-9.02639,-2.85246,2.8428,-9.05244,-2.58664,-0.0493856,0.0210831,0.0253414,13.7521,43.9541,-4.19585,0.600891,0.73284,0.315592,-0.0477192,34.0625,-1.3269,9.67138,0.799963,-1.49452,9.64967,1.30185,0.0740679,0.037721,-0.0429433,5.77245,-41.9712,18.4594,0.557441,-0.41411,-0.516853,-0.500635,31.6875,9.66625,-0.495581,-2.69243,9.53143,-0.379171,-2.25062,-0.00632574,-0.0486667,-0.0118601,-44.1949,15.1862,1.2352,0.552136,0.370968,0.69612,0.270084
108,3801.47,24,137.0,30.875,2.82386,-8.91244,-2.73561,2.79695,-9.08235,-2.63183,-0.0435197,-0.0143862,0.00923224,14.3824,43.052,-3.79796,0.600547,0.733254,0.315292,-0.0476724,34.0625,-1.24694,9.78488,0.917205,-1.46387,9.72505,1.317,0.00805188,0.0289741,-0.025628,5.90273,-41.4596,17.8934,0.557581,-0.414027,-0.516967,-0.50043,31.6875,9.5962,-0.420455,-2.53925,9.56143,-0.318683,-2.26611,-0.0175518,0.0264466,-0.0159116,-44.448,14.9405,0.950927,0.552306,0.370747,0.695978,0.270406
108,3801.48,24,137.0,30.875,2.74828,-8.91186,-2.73674,2.82772,-9.0825,-2.55635,-0.0581128,-0.0181815,0.0323159,14.006,43.3203,-3.79883,0.600204,0.733654,0.315008,-0.0477186,34.0625,-1.25047,9.74645,0.801103,-1.50878,9.81579,1.25708,-0.00443627,-0.00521228,-0.0372231,5.76263,-41.326,18.4557,0.557807,-0.413981,-0.516977,-0.500207,31.6875,9.60009,-0.307512,-2.42414,9.45642,-0.243044,-2.23552,-0.0089939,0.00386396,-0.0452472,-44.0699,14.7908,0.24327,0.552574,0.370035,0.695973,0.270848
108,3801.49,24,137.0,30.875,3.00773,-8.8773,-2.88692,2.79733,-9.08231,-2.58652,-0.0209103,0.000787143,0.0292361,13.2643,43.1116,-3.92729,0.600132,0.733777,0.314842,-0.0478355,34.0625,-1.28754,9.70917,0.839274,-1.58436,9.7707,1.24229,-0.0138633,-0.0272801,-0.00634822,5.11498,-40.9151,18.3078,0.557772,-0.414025,-0.516843,-0.500348,31.6875,9.70517,-0.420202,-2.6539,9.51619,-0.258249,-2.31147,0.000114668,-0.0327791,-0.0235102,-43.9332,14.6569,0.811234,0.55257,0.369762,0.696051,0.271026
108,3801.5,24,137.0,30.875,2.82841,-9.02492,-2.58121,2.82747,-9.11271,-2.55629,-0.0109288,0.00998784,0.0229787,13.8882,43.3261,-4.58601,0.600181,0.73377,0.314749,-0.0479425,34.0625,-1.43811,9.55955,0.914474,-1.60014,9.72557,1.1667,0.0214486,0.0248397,-0.0229673,4.98077,-41.1686,18.8723,0.557505,-0.413974,-0.517006,-0.500519,31.6875,9.52123,-0.229816,-2.57979,9.53131,-0.348958,-2.28099,-0.0411868,-0.0480427,0.00459654,-43.55,14.6378,0.812605,0.55247,0.369767,0.696067,0.271183
108,3801.51,24,137.0,30.875,2.81557,-8.95239,-2.96652,2.78213,-9.11239,-2.57134,-0.0357605,-0.0698169,-0.00415419,14.1415,42.8163,-4.32097,0.599932,0.733909,0.314864,-0.048171,34.0625,-1.39761,9.59761,0.992526,-1.64537,9.68035,1.19706,0.0144068,-0.0356378,0.00285857,5.75637,-41.068,18.5952,0.557681,-0.414081,-0.51697,-0.500271,31.6875,9.55536,-0.22909,-2.69522,9.53127,-0.273352,-2.29636,0.00450693,-0.0570724,-0.00245753,-43.8133,15.1668,1.09473,0.552189,0.370003,0.696207,0.271072
108,3801.52,24,137.0,30.875,2.89062,-9.02885,-2.96514,2.81139,-9.14288,-2.64681,-0.0226992,-0.0378884,0.0229506,13.2655,42.8635,-3.66332,0.599728,0.734097,0.31478,-0.0483843,34.0625,-1.40437,9.63371,0.75996,-1.59997,9.6953,1.22706,-0.0487694,-0.0197558,0.0190465,5.88998,-41.8472,19.0235,0.557917,-0.414038,-0.516765,-0.500255,31.6875,9.70148,-0.495176,-2.76925,9.54597,-0.288566,-2.37207,-0.0407125,-0.056584,-0.0301428,-44.4441,15.2003,1.80163,0.551621,0.370522,0.69642,0.270974
108,3801.53,24,137.0,30.875,2.86005,-8.95101,-2.77342,2.84203,-9.15813,-2.5713,-0.0287808,-0.0469047,0.00336139,13.1343,43.6149,-4.06131,0.599643,0.734092,0.314922,-0.0485949,34.0625,-1.40592,9.48283,0.721702,-1.64602,9.65027,1.12142,-0.0927105,-0.0505591,0.034917,5.12627,-41.0439,17.7446,0.557966,-0.414016,-0.516317,-0.500681,31.6875,9.67074,-0.268733,-2.57802,9.56109,-0.409525,-2.34149,-0.0127807,-0.0363812,-0.0235779,-43.691,15.4182,1.09487,0.551338,0.370767,0.696526,0.270943
108,3801.54,24,137.0,30.875,2.97209,-9.14158,-2.7711,2.87217,-9.14326,-2.58647,0.00353692,-0.0180939,0.0264391,13.7567,43.4576,-3.93039,0.5996,0.734188,0.314754,-0.0487543,34.0625,-1.25724,9.78255,0.568538,-1.61685,9.60507,1.01532,-0.0876332,-0.065256,0.0327945,5.76975,-42.1004,18.7421,0.55828,-0.41401,-0.515905,-0.50076,31.6875,9.59089,-0.38088,-2.7325,9.59133,-0.364088,-2.29639,0.0250416,-0.029923,0.0199078,-44.0898,15.9518,0.66735,0.551269,0.370946,0.696553,0.270767
108,3801.55,24,137.0,30.875,2.89838,-9.06478,-2.73398,2.93195,-9.17393,-2.61666,-0.0303406,-0.00907987,0.0112469,13.2655,42.8635,-3.66332,0.599446,0.734365,0.314634,-0.0487704,34.0625,-1.32461,9.6719,0.877444,-1.54118,9.63502,1.06029,-0.0332149,-0.0219371,0.0432858,5.26295,-41.5648,17.7485,0.558147,-0.414155,-0.515642,-0.501059,31.6875,9.66574,-0.381354,-2.73173,9.54633,-0.36408,-2.28102,-0.00674032,-0.0319743,-0.0455774,-43.8164,15.1661,0.811055,0.551172,0.370756,0.696669,0.270929
108,3801.56,24,137.0,30.875,2.81879,-9.0652,-2.85063,2.93106,-9.24946,-2.6467,-0.00834245,-0.0643938,-0.00696343,13.3898,42.8569,-3.66354,0.599272,0.734456,0.314721,-0.0489693,34.0625,-1.13454,9.48304,0.881502,-1.49486,9.6951,1.1962,-0.00234968,-0.0247707,0.0271855,5.26258,-41.6939,17.8903,0.558029,-0.414361,-0.515447,-0.501221,31.6875,9.58999,-0.34259,-2.77134,9.50109,-0.31877,-2.32633,0.0250035,-0.0546633,-0.0118339,-43.9348,14.6566,0.669397,0.55127,0.3703,0.696811,0.270987
108,3801.57,24,137.0,30.875,2.92814,-9.06708,-2.96445,2.9008,-9.23417,-2.6769,-0.0407521,-0.0286358,0.00630159,14.0072,43.0722,-3.53486,0.598944,0.7348,0.314542,-0.0489784,34.0625,-1.32795,9.70877,0.761101,-1.52494,9.71028,1.18131,-0.0159534,0.015094,0.0390425,5.77784,-41.7129,17.8939,0.558033,-0.41439,-0.51538,-0.501262,31.6875,9.51455,-0.456022,-2.77141,9.51605,-0.288536,-2.34164,0.0443681,-0.0365198,0.000991073,-43.8261,15.5524,0.66874,0.551229,0.370246,0.696946,0.270798
108,3801.58,24,137.0,30.875,2.85497,-9.10377,-2.88845,2.84102,-9.21859,-2.63157,-0.057426,-0.0734156,0.000460257,13.024,42.504,-3.92312,0.598689,0.734894,0.31477,-0.0492322,34.0625,-1.17434,9.70856,0.802606,-1.46522,9.72537,1.09032,-0.0143987,-0.0191218,-0.00468688,5.50856,-41.7037,18.597,0.55812,-0.414463,-0.51527,-0.501218,31.6875,9.62962,-0.34347,-2.69374,9.47087,-0.258333,-2.37177,0.0102257,-0.00960034,-0.0256294,-43.816,15.2957,1.09457,0.551095,0.370294,0.697026,0.2708
108,3801.59,24,137.0,30.875,2.9236,-9.14397,-3.07972,2.87116,-9.20372,-2.64674,-0.0596213,-0.0300928,-0.00401906,13.1383,43.2424,-3.92783,0.598497,0.734992,0.314892,-0.0493004,34.0625,-1.25525,9.6701,0.646381,-1.42028,9.71019,1.07489,-0.0392874,0.0162671,0.0220668,5.38477,-41.5697,18.1724,0.558053,-0.414477,-0.515118,-0.501437,31.6875,9.55736,-0.267701,-2.61778,9.53106,-0.349032,-2.34153,0.0007003,-0.0148851,-0.0201899,-44.4515,15.3282,1.37596,0.550912,0.370464,0.6971,0.270746
108,3801.6,24,137.0,30.875,2.89677,-9.10306,-2.77236,2.85635,-9.17341,-2.64679,-0.0464383,-0.0469665,0.0123204,14.0039,43.0727,-3.14116,0.598052,0.735452,0.314656,-0.049355,34.0625,-1.33073,9.51999,0.684222,-1.42013,9.6497,1.16539,-0.040403,0.0654202,-0.0109807,5.26025,-41.6939,18.0312,0.557901,-0.414277,-0.515145,-0.501744,31.6875,9.59439,-0.343875,-2.61692,9.47123,-0.318721,-2.28076,-0.00328008,-0.0586813,-0.0253375,-43.684,15.1607,1.23702,0.550592,0.370651,0.697268,0.270711
108,3801.61,24,137.0,30.875,2.93162,-9.14196,-2.84868,2.96222,-9.20431,-2.57133,-0.032906,-0.0683687,0.0159842,13.7678,42.9603,-4.45232,0.597943,0.735438,0.31485,-0.0496478,34.0625,-1.17932,9.55691,0.648125,-1.46547,9.55916,1.22585,-0.00979476,0.0308721,0.0311223,5.25472,-41.1777,17.8873,0.557715,-0.414306,-0.515095,-0.501977,31.6875,9.66634,-0.267448,-2.73243,9.51626,-0.243105,-2.29638,0.020304,-0.0140332,-0.0264322,-44.4434,14.9415,1.37644,0.550537,0.370567,0.697332,0.270771
108,3801.62,24,137.0,30.875,3.00426,-8.99179,-2.96356,2.93145,-9.18907,-2.66193,-0.0143774,-0.0453441,-0.00976968,13.267,43.2352,-4.45297,0.597991,0.735251,0.315161,-0.0498585,34.0625,-1.32397,9.48389,0.916788,-1.46557,9.51383,1.25594,0.0426977,0.0175544,0.00957314,5.25632,-41.4359,18.0298,0.557506,-0.414452,-0.515182,-0.502,31.6875,9.59879,-0.34516,-2.46251,9.60646,-0.197692,-2.28187,0.0401903,-0.00715935,-0.00268327,-43.8078,15.4269,2.08727,0.550159,0.37121,0.69743,0.270406
108,3801.63,24,137.0,30.875,2.92948,-9.06675,-2.92594,2.91701,-9.14363,-2.63182,-0.00598151,-0.0362653,-0.0193941,13.2743,42.8624,-4.71319,0.598115,0.73498,0.315529,-0.0500487,34.0625,-1.20758,9.82267,0.956516,-1.49462,9.61947,1.31688,0.00914922,0.0185856,-0.0023114,5.12051,-41.4313,18.4518,0.55736,-0.414455,-0.515213,-0.502128,31.6875,9.55586,-0.343317,-2.65591,9.50117,-0.228002,-2.31149,-0.0136222,-0.0138758,0.0231075,-44.355,16.3508,0.524122,0.550076,0.371444,0.697354,0.270449
108,3801.64,24,137.0,30.875,2.8662,-9.02521,-2.58064,2.91827,-9.06806,-2.55648,-0.00735393,-0.0191996,-0.00632716,13.3847,43.4774,-4.06098,0.598147,0.734921,0.315595,-0.0501062,34.0625,-1.39791,9.48465,0.992888,-1.55486,9.66497,1.25692,0.00741172,0.0105317,-0.00858363,5.12394,-41.0439,17.8856,0.557257,-0.414442,-0.515257,-0.502208,31.6875,9.63091,-0.305822,-2.65538,9.53101,-0.288551,-2.35686,0.0139631,-0.0288586,0.00728481,-44.3141,14.9355,1.51873,0.549996,0.371523,0.697408,0.270366
108,3801.65,24,137.0,30.875,2.94098,-8.95025,-2.61826,2.88788,-9.12822,-2.52611,0.00280669,-0.0192497,-0.0145521,13.8721,43.948,-3.67113,0.59809,0.735005,0.315509,-0.0500963,34.0625,-1.3999,9.59709,0.915044,-1.58503,9.66506,1.24199,0.0431553,-0.0134084,0.0014846,5.64437,-41.7083,18.175,0.557295,-0.414569,-0.515354,-0.501961,31.6875,9.54946,-0.303421,-2.88776,9.51588,-0.243216,-2.38719,-0.0216956,-0.04902,-0.0197812,-44.4554,15.5863,1.51748,0.549599,0.371862,0.697541,0.270364
108,3801.66,24,137.0,30.875,2.97342,-8.95188,-2.77172,2.85786,-9.14307,-2.49585,-0.0201957,-0.0331267,-0.0178072,13.7618,42.8371,-3.53294,0.597905,0.735195,0.315421,-0.0500725,34.0625,-1.36139,9.74758,0.915253,-1.55511,9.71037,1.16638,0.00547383,0.0146033,-0.00758072,4.73872,-41.4169,18.167,0.556986,-0.414574,-0.515388,-0.502266,31.6875,9.63331,-0.268496,-2.5784,9.56056,-0.258443,-2.47819,-0.00651394,-0.00225623,-0.00433568,-44.1937,15.057,1.09352,0.54966,0.371699,0.697534,0.270482
108,3801.67,24,137.0,30.875,2.81772,-9.0276,-2.88926,2.90383,-9.08297,-2.46583,0.0112463,-0.0422546,-0.0051573,13.6274,43.5889,-3.53722,0.597857,0.735253,0.315362,-0.0501719,34.0625,-1.36522,9.59619,0.799513,-1.55465,9.74049,1.2118,-0.0241218,0.00966192,0.0253553,5.13107,-41.8183,18.1721,0.556838,-0.414573,-0.515282,-0.502539,31.6875,9.51895,-0.457306,-2.61699,9.57603,-0.25831,-2.37233,-0.0149061,-0.0500484,-0.0174098,-44.0703,15.1792,0.951979,0.549536,0.371586,0.69764,0.270616
108,3801.68,24,137.0,30.875,2.85497,-9.10377,-2.88845,2.90371,-9.06789,-2.49606,-0.00236954,-0.0141809,-0.00944244,12.7658,43.1383,-3.79521,0.597967,0.73513,0.315433,-0.0502078,34.0625,-1.28754,9.70917,0.839274,-1.5697,9.72541,1.22696,-0.0140064,0.000899299,0.0154389,4.35301,-41.1444,17.8808,0.556433,-0.414621,-0.515157,-0.503075,31.6875,9.47952,-0.418458,-2.69482,9.53095,-0.273445,-2.37204,-0.0331711,-0.0123729,0.0222824,-44.0734,15.1785,0.668304,0.549656,0.371438,0.697554,0.270794
108,3801.69,24,137.0,30.875,2.86246,-8.98828,-2.69629,2.96197,-9.15907,-2.64693,-0.00106455,-0.00304277,-0.00070986,13.8873,42.8303,-3.66438,0.597888,0.735278,0.315249,-0.050148,34.0625,-1.17101,9.67168,0.918949,-1.53953,9.72532,1.24189,-0.00883009,-0.00489302,0.0181416,4.73406,-41.417,18.449,0.556215,-0.414672,-0.51506,-0.503374,31.6875,9.62832,-0.381117,-2.73211,9.56124,-0.303614,-2.31156,-0.033481,0.00539948,0.0122076,-43.9406,15.3027,1.37779,0.549541,0.371772,0.697431,0.270887
108,3801.7,24,137.0,30.875,2.82012,-9.06487,-2.81212,2.9013,-9.21903,-2.63163,0.00470339,-0.0632308,-0.0334946,13.6451,42.8427,-4.45136,0.597918,0.735085,0.315606,-0.0503622,34.0625,-1.13593,9.8214,0.802935,-1.52469,9.66488,1.27185,0.0142417,0.00432611,0.0117146,4.99832,-41.5555,18.1696,0.556055,-0.414744,-0.515058,-0.503492,31.6875,9.47771,-0.341879,-2.77249,9.63597,-0.318834,-2.40272,-0.00695832,-0.0696109,0.00212114,-43.932,14.5277,0.669556,0.549653,0.371298,0.697522,0.271075
108,3801.71,24,137.0,30.875,2.89864,-9.02684,-2.7341,2.87205,-9.15836,-2.58643,-0.000721978,-0.0876258,-0.0351886,13.3864,43.3532,-4.06023,0.597862,0.734956,0.315973,-0.0506186,34.0625,-1.36502,9.6715,0.799272,-1.50946,9.69503,1.27185,0.00895565,-0.0249273,0.00017885,5.12787,-41.302,17.8871,0.556077,-0.414848,-0.514989,-0.503453,31.6875,9.55567,-0.381285,-2.65568,9.54616,-0.273386,-2.32671,-0.0156786,-0.0490273,-0.00164747,-44.1902,14.6693,0.668484,0.549773,0.370879,0.697548,0.271339
108,3801.72,24,137.0,30.875,2.92921,-9.10469,-2.92582,2.84115,-9.20349,-2.63161,-0.00411195,-0.0290948,-0.0333434,13.2655,42.8635,-3.66332,0.597791,0.734973,0.316065,-0.050641,34.0625,-1.28401,9.7476,0.955376,-1.50982,9.68,1.22647,0.0360164,-0.0166247,-0.00181333,5.25326,-41.6941,18.4542,0.556062,-0.414997,-0.515031,-0.503305,31.6875,9.445,-0.495122,-2.57893,9.54635,-0.288455,-2.28126,-0.0141387,-0.00186603,0.00588851,-44.1887,15.1876,1.80254,0.549537,0.371355,0.697515,0.271252
108,3801.73,24,137.0,30.875,2.82306,-9.02626,-2.73524,2.88598,-9.23403,-2.64669,-0.0189518,-0.00404389,-0.0552896,13.3903,42.9808,-3.92675,0.597755,0.734945,0.31622,-0.050492,34.0625,-1.32377,9.5592,0.916547,-1.58467,9.66497,1.30244,-0.0113716,-0.0348583,0.00228596,5.25216,-42.0814,18.8794,0.556169,-0.415025,-0.514914,-0.503284,31.6875,9.55696,-0.343638,-2.61731,9.51594,-0.258323,-2.37201,-0.0287204,-0.0031867,-0.013068,-44.1902,15.1873,1.66071,0.549305,0.371665,0.697509,0.271312
108,3801.74,24,137.0,30.875,3.16638,-8.95233,-2.65337,2.88737,-9.11318,-2.60165,-0.0259879,-0.0250474,-0.0243069,13.8889,42.9541,-4.05883,0.597629,0.735027,0.316274,-0.0504619,34.0625,-1.32282,9.48415,0.955529,-1.57011,9.60459,1.28706,-0.0281021,0.0211059,-0.00816302,5.38747,-41.4406,17.8897,0.556264,-0.414828,-0.514948,-0.503306,31.6875,9.47752,-0.379847,-2.77226,9.53065,-0.228162,-2.44786,0.0313081,0.00636896,0.0155382,-44.7035,14.9533,0.950013,0.549586,0.371293,0.697472,0.271347
108,3801.75,24,137.0,30.875,2.93349,-8.87638,-2.84955,2.94867,-9.06825,-2.52631,0.00670261,-0.0675174,-0.00853896,13.6363,43.0919,-3.79669,0.59755,0.735044,0.316354,-0.0506414,34.0625,-1.36875,9.55776,0.683411,-1.57047,9.60467,1.22662,0.0273108,-0.0252649,0.016052,4.73763,-41.8042,18.5923,0.556017,-0.414997,-0.514911,-0.503477,31.6875,9.51435,-0.49399,-2.77117,9.57613,-0.318772,-2.34186,-0.0133283,-0.0288126,-0.00302719,-44.573,14.818,0.950629,0.549689,0.371007,0.697462,0.271556
108,3801.76,24,137.0,30.875,3.01201,-8.83836,-2.77153,2.97843,-9.0685,-2.57164,0.0169313,-0.0586154,-0.0256655,14.1343,42.9413,-3.66555,0.597443,0.735129,0.316353,-0.0506861,34.0625,-1.24704,9.74722,0.917326,-1.55438,9.74043,1.25714,-0.00437184,-0.00851581,0.0330289,5.24577,-41.0489,18.3095,0.556023,-0.415076,-0.514822,-0.503497,31.6875,9.43809,-0.340999,-2.85008,9.57602,-0.28856,-2.37223,-0.0186668,-0.0359267,-0.00232021,-43.8172,15.4249,1.23625,0.54942,0.371324,0.697511,0.271542
108,3801.77,24,137.0,30.875,3.04365,-8.95381,-2.92461,3.00757,-9.03865,-2.72274,0.0132792,-0.0683316,-0.0419033,13.3998,42.6076,-4.44944,0.597486,0.734888,0.316799,-0.0508756,34.0625,-1.33262,9.67008,0.606258,-1.52447,9.77063,1.19659,-0.028513,0.00994803,0.0128873,4.60991,-41.4122,18.1661,0.55578,-0.415046,-0.514714,-0.503899,31.6875,9.62852,-0.343148,-2.73235,9.57616,-0.228023,-2.34215,-0.0161621,-0.0130175,0.0191702,-44.1992,15.3148,1.0932,0.549377,0.371465,0.697444,0.271608
108,3801.78,24,137.0,30.875,3.07663,-9.06892,-3.03919,3.09761,-9.05443,-2.753,0.00115184,-0.0276989,-0.0465991,13.759,42.9615,-3.40245,0.597313,0.735023,0.316839,-0.0507186,34.0625,-1.25182,9.67088,0.762603,-1.54043,9.71042,1.10584,-0.00910449,-0.0206254,0.0246474,5.14199,-42.0762,17.7506,0.555724,-0.415151,-0.514598,-0.503994,31.6875,9.70596,-0.268328,-2.65484,9.56087,-0.273475,-2.40247,0.018797,-0.0357498,-0.0116728,-43.9359,14.7858,0.811075,0.54948,0.371066,0.697548,0.271677
108,3801.79,24,137.0,30.875,3.12137,-9.0296,-2.84622,3.1118,-9.0999,-2.81332,-0.00232645,-0.0481044,-0.0264133,12.7708,42.7658,-3.79296,0.597276,0.734925,0.31712,-0.0508014,34.0625,-1.25609,9.78281,0.607278,-1.49605,9.66515,1.02988,0.0124589,0.0198578,0.0134965,5.25755,-41.8231,18.314,0.555629,-0.415191,-0.514688,-0.503973,31.75,9.59349,-0.305585,-2.65576,9.56069,-0.243281,-2.44797,0.0123525,-0.0227063,-0.02811,-43.9262,14.3995,0.95339,0.549614,0.370572,0.697622,0.271893
108,3801.8,24,137.0,30.875,3.24891,-8.9133,-2.45983,3.08242,-9.05434,-2.76809,-0.00608982,-0.0328492,-0.0167785,13.2694,42.7391,-3.92504,0.597212,0.734912,0.317268,-0.0508342,34.0625,-1.40467,9.52075,0.760322,-1.49572,9.58949,1.16567,0.0160925,-0.0373248,-0.0296146,5.12983,-41.431,17.8878,0.555746,-0.415266,-0.514689,-0.503782,31.75,9.58869,-0.380237,-2.8097,9.57595,-0.288578,-2.38736,0.00614744,-0.0327328,-0.000649478,-44.0504,14.5361,1.52012,0.54953,0.37059,0.697693,0.271853
108,3801.81,24,137.0,30.875,3.01495,-8.79975,-2.69464,3.06924,-8.93332,-2.66263,-0.0565967,-0.0239226,0.00541121,13.6346,43.216,-3.79744,0.596939,0.735153,0.317233,-0.0507671,34.0625,-1.32586,9.63398,0.838824,-1.54057,9.58953,1.21128,-0.0192254,0.043759,0.00543228,5.26405,-41.1775,17.3233,0.555708,-0.415082,-0.514786,-0.503876,31.75,9.55206,-0.228126,-2.81102,9.5459,-0.318835,-2.38711,-0.0163114,-0.0135272,-0.0257361,-44.1926,14.9278,0.95184,0.54955,0.370363,0.697728,0.272033
108,3801.82,24,137.0,30.875,2.9785,-8.98848,-2.61757,3.08508,-8.82774,-2.67798,-0.0507575,-0.0107046,-0.004113,13.1411,42.8702,-3.66311,0.596733,0.735323,0.317247,-0.050641,34.0625,-1.43553,9.67303,0.991594,-1.53974,9.6498,1.28701,-0.0146202,0.00690358,0.00419024,4.99526,-41.8137,18.5941,0.555645,-0.415022,-0.514756,-0.504026,31.75,9.51663,-0.2665,-2.73397,9.59099,-0.228075,-2.38764,-0.00121437,-0.0531652,0.036951,-43.9262,14.9174,1.94561,0.549176,0.370976,0.697836,0.271678
108,3801.83,24,137.0,30.875,3.11923,-8.95439,-2.92348,3.09875,-8.97887,-2.69277,-0.0818315,0.000640272,0.00253217,13.2543,43.6088,-3.53659,0.596418,0.735619,0.317182,-0.050445,34.0625,-1.24923,9.78436,0.839723,-1.569,9.66479,1.40813,-0.00302928,-0.0154463,-0.0203989,5.12677,-41.6893,18.3123,0.555743,-0.41496,-0.514742,-0.503983,31.75,9.44139,-0.341963,-2.73427,9.53096,-0.243195,-2.37214,-0.0666468,-0.0179481,-0.00149014,-44.7203,15.597,0.665543,0.549106,0.370971,0.697781,0.271966
108,3801.84,24,137.0,30.875,3.11629,-8.993,-3.00037,3.14385,-8.88868,-2.79871,-0.0629103,-0.0104831,-0.0184697,12.7691,42.8899,-3.79371,0.596243,0.735689,0.317375,-0.050297,34.0625,-1.39587,9.82379,1.03054,-1.49329,9.80054,1.34762,0.00986448,-0.00844871,-0.00316306,5.12211,-41.6894,18.5943,0.555755,-0.415017,-0.514716,-0.50395,31.75,9.58779,-0.341948,-2.84854,9.53108,-0.258282,-2.34182,-0.00672585,-0.00659215,-0.0287968,-44.0683,15.3091,1.37733,0.548922,0.371129,0.697811,0.272044
108,3801.85,24,137.0,30.875,3.11495,-8.99334,-3.03887,3.08166,-9.03933,-2.87382,-0.0412748,-0.0158824,-0.0158547,13.1377,43.3665,-4.05981,0.596135,0.735684,0.317594,-0.0502689,34.0625,-1.51683,9.48397,0.835852,-1.55379,9.86121,1.22726,0.00148992,-0.0194514,0.0106331,4.49521,-42.1816,18.0287,0.555453,-0.415158,-0.514579,-0.504305,31.75,9.51914,-0.419338,-2.61723,9.54622,-0.288492,-2.31153,-0.0571107,-0.0162391,0.0355747,-43.8047,14.9097,1.37872,0.548797,0.371506,0.697662,0.272162
108,3801.86,24,137.0,30.875,3.11548,-8.7281,-3.07825,3.08217,-9.02419,-2.82856,-0.00779946,0.0281533,-0.0173383,13.8887,43.45,-4.84923,0.59626,0.735514,0.317765,-0.0501793,34.125,-1.4184,9.51764,0.295432,-1.64723,9.77147,0.789298,-0.0728968,0.0610969,-0.00439499,5.26148,-42.0812,18.3155,0.55544,-0.414755,-0.514711,-0.504518,31.75,9.52154,-0.382012,-2.54026,9.53102,-0.258301,-2.35695,-0.0131492,-0.0491991,-0.00873207,-44.3269,15.3211,1.09274,0.548621,0.371552,0.697758,0.272208
108,3801.87,24,137.0,30.875,3.04578,-8.65029,-2.92561,3.08457,-8.84288,-2.72325,0.0234194,-0.0145764,-0.00995399,13.7784,42.3391,-4.71104,0.596409,0.735302,0.317964,-0.0502615,34.125,-1.32387,9.52154,0.916667,-1.58787,9.55991,0.879001,0.0100252,-0.0227089,-0.0241598,4.61114,-41.7994,18.4503,0.555246,-0.414775,-0.514788,-0.504636,31.75,9.70546,-0.154101,-2.69414,9.5006,-0.258419,-2.4476,-0.0235478,-0.0291965,0.00245649,-44.0715,15.3084,1.09366,0.548487,0.371648,0.697798,0.272245
108,3801.88,24,137.0,30.875,2.88821,-8.99159,-3.04228,3.08368,-8.9335,-2.73815,-0.0603588,0.0613402,0.00644332,13.5185,43.0976,-4.58388,0.596403,0.735345,0.317919,-0.0499971,34.125,-1.27173,9.63749,1.38189,-1.46356,9.58894,1.51306,-0.0445389,-0.0192967,0.0000365339,5.25252,-41.9523,18.7377,0.555477,-0.41469,-0.514572,-0.504671,31.75,9.54867,-0.455295,-2.88683,9.56081,-0.288619,-2.41755,-0.0303148,0.0479067,0.0441242,-44.4484,14.811,0.667411,0.54897,0.371288,0.6975,0.272526
108,3801.89,24,137.0,30.875,3.07716,-8.80368,-3.07857,3.02251,-9.05386,-2.72272,0.0124019,-0.0104033,-0.00327839,13.145,42.7457,-3.92483,0.596475,0.735267,0.317956,-0.0500459,34.125,-1.27775,9.52324,1.18854,-1.50669,9.63392,1.80059,-0.0358072,-0.0161114,0.00478531,4.74768,-41.5458,17.7448,0.555517,-0.41462,-0.514316,-0.504945,31.75,9.62871,-0.30518,-2.73258,9.56093,-0.288581,-2.38728,-0.0159229,0.0203568,0.0249979,-43.816,15.2957,1.09457,0.549017,0.371468,0.697356,0.272554
108,3801.9,24,137.0,30.875,2.88768,-8.8781,-3.08115,3.00732,-8.99341,-2.79835,0.00969104,0.010546,0.0299508,13.5114,42.9746,-3.53326,0.59642,0.735428,0.317684,-0.0500625,34.125,-1.29918,9.63127,0.452107,-1.50965,9.66484,1.27176,0.0144734,-0.0617403,-0.00277239,5.13733,-42.0763,18.0326,0.555641,-0.414808,-0.514183,-0.504791,31.75,9.55307,-0.45658,-2.73242,9.54585,-0.273478,-2.40239,0.00610953,-0.00752956,0.000374518,-43.809,15.0382,1.23673,0.548989,0.371504,0.697369,0.272529
108,3801.91,24,137.0,30.875,2.99275,-8.91893,-3.31037,3.05241,-8.97866,-2.82863,-0.0205995,0.034085,-0.00645122,12.8884,43.2559,-3.79617,0.596442,0.735428,0.317669,-0.0498956,34.125,-1.21559,9.82086,0.68533,-1.52681,9.77118,0.803683,-0.00949801,-0.0107284,-0.0124692,5.52131,-41.3161,17.4669,0.555873,-0.414761,-0.514286,-0.504469,31.75,9.66834,-0.306059,-2.65499,9.56056,-0.273568,-2.47814,-0.0271621,-0.00951791,0.00657021,-44.2011,15.7028,1.66007,0.548646,0.372089,0.69737,0.27242
108,3801.92,24,137.0,30.875,2.92039,-9.03116,-3.19561,2.99086,-9.03871,-2.91904,-0.0317294,0.0285382,0.0116075,13.1477,42.8693,-4.45051,0.596466,0.735376,0.317745,-0.0498853,34.125,-1.40333,9.59631,0.798822,-1.55647,9.69557,0.954768,0.0135518,0.0102752,-0.0318274,4.73749,-41.0297,17.8828,0.555705,-0.414712,-0.514452,-0.504524,31.75,9.55666,-0.191442,-2.65685,9.53089,-0.273463,-2.38717,-0.0138132,-0.0702507,-0.00420481,-44.5894,15.5913,0.949674,0.548426,0.372128,0.697526,0.272408
108,3801.93,24,137.0,30.875,2.92039,-9.03116,-3.19561,2.98998,-9.09916,-2.9642,-0.0173514,-0.0103124,-0.0111844,13.261,43.1121,-3.53359,0.596285,0.735512,0.317771,-0.0498766,34.125,-1.50778,9.44839,1.1459,-1.67531,9.6048,1.30281,-0.0110946,0.0811886,-0.016443,5.12051,-41.4313,18.4518,0.555576,-0.414341,-0.51475,-0.504668,31.75,9.51384,-0.379763,-2.81048,9.50107,-0.167539,-2.34195,-0.0163897,-0.0702398,-0.0113011,-43.8179,15.1658,0.669218,0.548297,0.371937,0.697677,0.272543
108,3801.94,24,137.0,30.875,3.04819,-8.87692,-2.80934,3.02125,-9.08417,-2.84346,-0.0475755,0.00102451,-0.005364,13.6508,42.3461,-4.31713,0.596141,0.735599,0.31785,-0.0498184,34.125,-1.31909,9.59789,1.07139,-1.59885,9.57411,1.54406,0.0660193,0.0159107,-0.0574324,5.90163,-41.8469,18.3186,0.555844,-0.41423,-0.515119,-0.504087,31.75,9.62942,-0.381438,-2.69351,9.5612,-0.228007,-2.32694,-0.0217228,-0.0802253,0.0224639,-43.9613,16.2045,1.23484,0.547775,0.372669,0.69774,0.272432
108,3801.95,24,137.0,30.875,2.89249,-8.95264,-2.92688,2.9611,-9.05354,-2.85857,-0.0611753,0.0463264,-0.0216267,13.2677,42.6153,-3.53059,0.595917,0.735856,0.317727,-0.049487,34.125,-1.09573,9.74649,0.881348,-1.52345,9.61924,1.52863,0.0247559,-0.000884783,-0.0442759,5.78534,-42.3582,18.0387,0.556114,-0.414124,-0.515272,-0.50372,31.75,9.55237,-0.380321,-2.77149,9.5909,-0.333968,-2.40243,-0.000636783,-0.0324088,0.00642535,-43.8156,15.4252,1.37809,0.547593,0.372923,0.697794,0.272314
108,3801.96,24,137.0,30.875,2.92921,-8.91533,-2.96494,2.93146,-9.05328,-2.79814,-0.0464585,0.031082,-0.037803,13.1483,42.7453,-4.31853,0.595919,0.735781,0.317927,-0.0492912,34.125,-1.32118,9.67268,0.993667,-1.50919,9.69497,1.31718,0.0189669,0.0244102,-0.0396691,5.1334,-41.8182,18.0311,0.556064,-0.414036,-0.51543,-0.503685,31.75,9.47371,-0.264657,-2.92737,9.54579,-0.258372,-2.41757,0.000557958,0.00490429,0.0044152,-43.934,14.9157,1.23643,0.547715,0.372781,0.697729,0.272428
108,3801.97,24,137.0,30.875,3.0793,-8.87889,-3.00131,2.9925,-8.97819,-2.78326,0.00769523,0.0261289,-0.0397624,13.5142,42.8503,-3.66375,0.595942,0.73579,0.3179,-0.0490607,34.125,-1.36407,9.59645,0.838254,-1.49367,9.75528,1.33238,0.0211267,-0.0263372,-0.0430663,5.25682,-42.0813,18.5974,0.556193,-0.414078,-0.515458,-0.503481,31.75,9.54926,-0.341389,-2.88753,9.5006,-0.243294,-2.44765,0.0217082,-0.0273928,0.0175595,-45.0863,15.1019,1.23216,0.547832,0.37257,0.697756,0.272414
108,3801.98,24,137.0,30.875,3.15701,-8.76532,-2.96204,3.09977,-8.85806,-2.69303,-0.0216834,0.0267862,-0.0275909,13.2666,42.8634,-3.79456,0.595938,0.735807,0.317906,-0.0487922,34.125,-1.32824,9.59581,0.761463,-1.49413,9.72516,1.28696,-0.0277126,-0.00863568,-0.033204,4.74658,-41.9331,18.17,0.556132,-0.413998,-0.515357,-0.503716,31.75,9.66874,-0.230122,-2.65546,9.53063,-0.303787,-2.44762,-0.0121818,-0.0206094,0.00729336,-44.4367,14.5546,1.23508,0.54798,0.372295,0.697705,0.272621
108,3801.99,24,137.0,30.875,3.00773,-8.8773,-2.88692,3.11433,-8.90349,-2.70805,-0.0437886,-0.0035821,-0.0230108,13.513,43.0983,-3.92771,0.595807,0.735887,0.317994,-0.0486172,34.125,-1.28555,9.59673,0.917117,-1.50964,9.67996,1.25669,0.00658232,-0.0151924,-0.0302732,4.86841,-41.938,18.5939,0.556071,-0.414004,-0.515358,-0.503777,31.75,9.47641,-0.379526,-2.81086,9.54535,-0.273627,-2.52347,0.0618112,-0.0255675,0.0184699,-44.325,15.451,1.5181,0.547916,0.372412,0.697852,0.272213
108,3802.0,24,137.0,30.875,3.11495,-8.80398,-3.078,3.06849,-8.96358,-2.72297,-0.0666693,-0.0198723,0.0070816,13.2654,43.1115,-4.05852,0.595617,0.735995,0.318102,-0.0486117,34.125,-1.09623,9.55822,0.881951,-1.52494,9.71028,1.18131,-0.00477931,0.014442,-0.00167803,5.25719,-41.9522,18.4557,0.556042,-0.413967,-0.515391,-0.503807,31.75,9.51254,-0.41741,-2.84884,9.53082,-0.318856,-2.40216,0.0530962,-0.00496607,0.016277,-44.4523,15.0691,0.80893,0.548266,0.371927,0.697868,0.272131
108,3802.01,24,137.0,30.875,3.04578,-8.65029,-2.92561,3.08381,-8.93349,-2.72305,-0.0376805,0.0341478,-0.0233842,13.1394,43.2423,-4.05906,0.595646,0.735956,0.318176,-0.0483647,34.125,-1.32491,9.55894,0.877806,-1.52535,9.58946,1.24141,-0.0265878,-0.0244956,-0.0211897,5.10406,-40.6572,18.7293,0.556234,-0.413903,-0.515297,-0.503743,31.75,9.67015,-0.382639,-2.57732,9.53084,-0.243232,-2.40241,0.00997477,0.0344285,-0.0134011,-45.1981,14.7234,1.94136,0.548366,0.371852,0.697794,0.272222
108,3802.02,24,137.0,30.875,2.93509,-8.83811,-2.81117,3.05354,-8.93328,-2.73812,-0.0616241,0.0402983,0.00240513,13.3887,43.105,-3.9275,0.595529,0.73611,0.318076,-0.0481213,34.125,-1.24734,9.63426,0.917687,-1.46499,9.63462,1.22607,-0.0538844,-0.0598941,-0.0175284,4.7278,-41.159,18.5885,0.556361,-0.4139,-0.514995,-0.503915,31.75,9.59419,-0.381844,-2.61669,9.51581,-0.273485,-2.40223,0.0122311,-0.00284536,0.00279777,-43.955,15.688,0.809962,0.548397,0.371825,0.697794,0.272195
108,3802.03,24,137.0,30.875,2.9662,-8.84008,-3.00313,2.94767,-8.96274,-2.75305,-0.0605028,0.0103953,0.00897483,13.6375,42.8438,-3.53273,0.595251,0.736425,0.317888,-0.0479819,34.125,-1.28899,9.59595,0.800895,-1.52537,9.54411,1.28662,-0.0440295,-0.0220002,-0.0242389,5.2459,-41.8234,19.0189,0.556585,-0.413764,-0.514868,-0.503908,31.75,9.63072,-0.343791,-2.65514,9.57626,-0.318735,-2.31159,0.0238886,-0.0120933,0.0121946,-44.5766,15.2057,1.37566,0.548433,0.371857,0.697781,0.272112
108,3802.04,24,137.0,30.875,2.90239,-9.06378,-2.61846,2.9616,-9.08367,-2.7679,-0.0773329,0.0300641,0.00521198,13.6369,42.9678,-3.66471,0.594989,0.73673,0.317706,-0.0477605,34.125,-1.16654,9.63506,1.07403,-1.44978,9.5892,1.30141,-0.0100154,-0.00930137,-0.00353462,5.12124,-41.1731,18.1683,0.556629,-0.41379,-0.514779,-0.50393,31.75,9.59549,-0.344196,-2.57832,9.531,-0.318801,-2.35676,0.0162035,-0.00974186,-0.0193131,-44.5695,14.9483,1.51782,0.548431,0.371763,0.697826,0.272131
108,3802.05,24,137.0,30.875,2.88821,-8.99159,-3.04228,2.9925,-9.05363,-2.70759,-0.0676824,0.00231038,-0.0365022,13.5075,43.347,-3.66675,0.594773,0.736884,0.317786,-0.0475288,34.125,-1.20933,9.59649,0.918499,-1.40438,9.60415,1.3314,-0.00130204,0.0326486,-0.00851681,5.63271,-41.7086,18.8799,0.556758,-0.413735,-0.514832,-0.503777,31.75,9.58649,-0.379595,-2.88691,9.50078,-0.288613,-2.4021,0.0260284,0.0276783,0.0149364,-43.9379,15.1738,1.37795,0.548541,0.371824,0.697746,0.272028
108,3802.06,24,137.0,30.875,2.89704,-9.06512,-2.77248,2.90068,-9.14365,-2.78281,-0.0499613,0.0470415,-0.00307405,13.0177,43.3725,-4.58453,0.594914,0.736705,0.317948,-0.0474578,34.125,-1.32233,9.67242,0.954926,-1.52434,9.64968,1.34737,0.0490285,-0.00747034,-0.00639535,5.36955,-41.1828,18.7341,0.556787,-0.413873,-0.514933,-0.50353,31.75,9.51545,-0.494311,-2.73257,9.53093,-0.349069,-2.3718,0.069636,0.00656015,0.0101267,-44.7047,15.0825,1.09169,0.548859,0.371445,0.697759,0.271873
108,3802.07,24,137.0,30.875,2.95711,-9.18321,-3.19455,2.91587,-9.21919,-2.69205,-0.0751933,0.0147329,-0.00611777,13.6352,43.092,-3.66546,0.594673,0.736962,0.317831,-0.047282,34.125,-1.32775,9.78408,0.76086,-1.50945,9.71014,1.25678,0.000239372,-0.0162922,0.0156038,4.60648,-41.7995,18.7323,0.556517,-0.413992,-0.51481,-0.503855,31.75,9.58818,-0.26601,-2.84901,9.51586,-0.318841,-2.38695,0.0431066,0.00410473,-0.0033577,-44.5723,15.0771,1.51766,0.548924,0.371385,0.697799,0.271719
108,3802.08,24,137.0,30.875,2.97021,-9.02843,-2.84849,2.91663,-9.11349,-2.70738,-0.0161281,0.0329554,-0.0197988,13.759,42.9615,-3.40245,0.594606,0.737123,0.317617,-0.0470462,34.125,-1.21007,9.74685,0.879276,-1.5098,9.74046,1.16619,-0.0127382,-0.031757,0.00969126,5.135,-42.0764,18.1735,0.556518,-0.414105,-0.514651,-0.503924,31.75,9.51254,-0.41741,-2.84884,9.50059,-0.288669,-2.4475,0.000667729,-0.0439414,-0.00313223,-44.3149,15.1943,1.94393,0.548552,0.371799,0.697977,0.271448
108,3802.09,24,137.0,30.875,3.0809,-9.02998,-2.9238,2.91613,-9.18899,-2.69212,-0.0352434,0.0311725,0.0183314,14.0055,43.1964,-3.53561,0.594482,0.737379,0.317275,-0.0469045,34.125,-1.2866,9.63412,0.878256,-1.53988,9.74052,1.16638,-0.0372937,-0.0400482,0.0114251,5.65136,-41.7081,17.752,0.556825,-0.414098,-0.514483,-0.503762,31.75,9.43899,-0.379289,-2.81125,9.56092,-0.333956,-2.38714,0.0261905,-0.0202662,0.015275,-44.3098,14.807,1.66073,0.548554,0.371848,0.698013,0.271286
108,3802.1,24,137.0,30.875,2.85792,-9.25452,-2.77243,2.96121,-9.18933,-2.70726,-0.039499,0.0303987,0.0232645,13.2616,42.988,-3.40161,0.594402,0.737559,0.317021,-0.0468073,34.125,-1.24391,9.63504,1.03391,-1.49515,9.66494,1.181,-0.0135632,0.0036479,0.00327728,4.8711,-41.8088,18.3112,0.556661,-0.41411,-0.514418,-0.504001,31.75,9.62541,-0.304216,-2.84839,9.54577,-0.349122,-2.41728,0.0510922,-0.0384941,-0.00846261,-44.3145,15.3239,2.22744,0.548192,0.372293,0.698263,0.270763
108,3802.11,24,137.0,30.875,2.97823,-9.02642,-2.61745,2.96247,-9.15902,-2.58653,-0.0266731,0.0624137,0.0236299,13.1361,43.2427,-3.66536,0.594537,0.73758,0.316745,-0.0466325,34.125,-1.21504,9.5952,0.724795,-1.51028,9.64988,1.18105,0.00351346,-0.0542414,0.0258056,5.12444,-41.6894,18.4533,0.556681,-0.414342,-0.514221,-0.503989,31.75,9.59459,-0.305906,-2.61716,9.57582,-0.33399,-2.41749,0.0268597,-0.050585,-0.00470108,-44.068,15.4386,1.66085,0.547921,0.372561,0.698427,0.270518
108,3802.12,24,137.0,30.875,2.78982,-9.13844,-2.58141,2.94752,-9.18907,-2.54114,-0.00256535,0.0644756,0.0223401,13.1421,43.118,-4.18955,0.594874,0.737379,0.316591,-0.0465506,34.125,-1.21037,9.63389,0.879637,-1.49527,9.57427,1.2563,0.0076625,-0.0167342,0.000303222,4.87037,-42.067,18.5947,0.556549,-0.41443,-0.514162,-0.504122,31.75,9.55536,-0.22909,-2.69522,9.56101,-0.243188,-2.3723,0.0629993,-0.0128874,-0.00582791,-44.1891,14.5401,0.526806,0.548438,0.3716,0.698482,0.270652
108,3802.13,24,137.0,30.875,2.97503,-9.10297,-2.69421,2.96222,-9.20431,-2.57133,-0.0219865,0.0265292,0.0233683,13.5075,43.0991,-3.27155,0.594832,0.737568,0.316246,-0.0464467,34.125,-1.32844,9.52051,0.761704,-1.46407,9.67975,1.33198,-0.0145735,-0.0352171,0.0171521,5.38564,-42.0861,18.5984,0.556697,-0.414541,-0.513964,-0.504068,31.75,9.62251,-0.227315,-2.96467,9.50111,-0.243145,-2.32657,0.036589,0.0132863,-0.00250101,-44.0715,15.3084,1.09366,0.548585,0.371444,0.698447,0.270658
108,3802.14,24,137.0,30.875,2.7499,-9.2523,-2.62011,3.00831,-9.17437,-2.49593,-0.0122494,0.0565579,0.0144376,13.2605,42.9882,-3.27037,0.594931,0.73766,0.315877,-0.0462122,34.125,-1.20704,9.59701,0.995981,-1.44873,9.74011,1.31695,0.000149542,-0.0353199,-0.0118221,4.35191,-41.5317,18.306,0.556481,-0.414673,-0.513801,-0.504365,31.75,9.59089,-0.38088,-2.7325,9.54596,-0.318816,-2.37197,0.018895,-0.00646996,-0.00903476,-44.5691,14.5599,0.80911,0.54896,0.370768,0.698409,0.270922
108,3802.15,24,137.0,30.875,2.97743,-8.95088,-2.6562,2.93346,-9.15868,-2.45059,0.0193124,0.0505705,0.0196702,14.0105,42.8239,-3.53336,0.59511,0.737721,0.315424,-0.0460476,34.125,-1.21266,9.63337,0.802156,-1.41866,9.72493,1.33184,-0.000226244,0.0133942,0.00835147,5.26258,-41.6939,17.8903,0.556473,-0.414703,-0.513773,-0.504377,31.75,9.62761,-0.304859,-2.77118,9.56089,-0.19785,-2.40271,-0.0128013,-0.0415089,0.0252137,-43.6696,14.7755,1.80485,0.548683,0.37119,0.698457,0.270781
108,3802.16,24,137.0,30.875,2.85363,-9.1041,-2.92695,2.87344,-9.0526,-2.52626,0.0083004,0.0537177,-0.0104536,14.0133,42.6995,-3.66384,0.595256,0.73774,0.315138,-0.0458095,34.125,-1.2134,9.78372,0.762933,-1.43412,9.78552,1.19609,0.033712,0.0374207,0.000787637,4.74462,-41.804,18.1693,0.556116,-0.414792,-0.513893,-0.504577,31.75,9.58889,-0.342269,-2.80994,9.56083,-0.182744,-2.4179,-0.0204524,0.0145139,-0.00263962,-44.0625,15.1809,1.66116,0.548542,0.371472,0.698384,0.270869
108,3802.17,24,137.0,30.875,2.98197,-8.87399,-2.54093,2.99287,-9.12903,-2.58662,-0.00561981,0.0425387,-0.0126675,13.2638,42.9877,-3.66407,0.595429,0.737651,0.315048,-0.0456205,34.125,-1.32347,9.67216,0.916185,-1.52465,9.77067,1.16637,0.0159849,0.030076,-0.00222139,5.38587,-41.1824,17.7472,0.556129,-0.414738,-0.514067,-0.504429,31.75,9.70117,-0.34298,-2.80878,9.53089,-0.273463,-2.38717,0.0204729,-0.038067,0.00406463,-44.1891,15.058,1.51903,0.548423,0.371563,0.698479,0.270741
108,3802.18,24,137.0,30.875,2.89196,-9.02852,-2.92663,2.96171,-9.21945,-2.61659,-0.00486899,0.0295095,-0.000544295,13.3876,43.1051,-3.79627,0.595586,0.737562,0.314968,-0.0455486,34.125,-1.20883,9.78476,0.917896,-1.50989,9.72536,1.16615,0.047554,0.0267509,-0.0321217,5.10639,-40.6571,18.5883,0.556083,-0.414737,-0.514338,-0.504204,31.75,9.62651,-0.304537,-2.80979,9.5909,-0.318843,-2.40248,0.0334479,-0.00524766,0.00125561,-44.4406,14.8127,1.3766,0.548581,0.371329,0.698485,0.270724
108,3802.19,24,137.0,30.875,2.93001,-8.99087,-2.92619,2.91739,-9.11341,-2.61678,0.000930749,0.0148507,0.009921,14.1304,43.0657,-3.40384,0.595564,0.737712,0.314668,-0.0454719,34.125,-1.36636,9.59593,0.760772,-1.52505,9.66496,1.2114,0.00407442,0.0467643,-0.015547,5.12947,-41.5601,18.0296,0.555975,-0.414593,-0.514516,-0.504259,31.75,9.70467,-0.305975,-2.69321,9.54597,-0.303691,-2.37202,0.0263708,-0.0131484,-0.00120033,-43.8098,15.297,1.66192,0.54841,0.371624,0.698534,0.270541
108,3802.2,24,137.0,30.875,3.08117,-8.99204,-2.92392,2.93246,-9.08335,-2.64706,-0.0232124,0.0333641,-0.000659436,13.2554,43.6087,-3.66782,0.595655,0.737674,0.314604,-0.0453606,34.125,-1.29366,9.55726,0.646052,-1.5254,9.68016,1.13589,0.0334106,0.0684442,-0.0282863,5.12567,-42.0766,18.7375,0.555758,-0.414452,-0.514863,-0.504261,31.75,9.55107,-0.417969,-2.80986,9.51585,-0.333966,-2.3869,0.0518672,0.0133266,-0.0221539,-44.8281,14.9603,1.23323,0.548686,0.371147,0.698557,0.270577
108,3802.21,24,137.0,30.875,2.81691,-8.95206,-2.92802,2.94678,-9.11371,-2.70742,0.0133282,-0.0129676,-0.00585586,13.0145,43.125,-3.79563,0.595836,0.737457,0.31475,-0.0454898,34.125,-1.32626,9.48337,0.839306,-1.5257,9.61977,1.15083,0.0328788,0.0167499,-0.0265598,4.74389,-42.0622,18.4528,0.555504,-0.414462,-0.515029,-0.504363,31.75,9.51773,-0.266821,-2.69537,9.50094,-0.379307,-2.3564,0.00255153,-0.0144362,0.0247203,-43.8024,14.6513,1.09537,0.548875,0.370959,0.698498,0.270603
108,3802.22,24,137.0,30.875,2.96807,-8.95322,-2.92575,2.88624,-9.09821,-2.75269,0.00232084,0.0515443,0.035356,13.1383,42.9945,-3.53263,0.595973,0.737463,0.314478,-0.045479,34.125,-1.33615,9.63165,0.490157,-1.51065,9.63485,1.13567,0.0474946,0.019981,-0.0232254,4.34995,-41.4027,18.3053,0.555078,-0.414528,-0.515216,-0.504587,31.75,9.58689,-0.303658,-2.88738,9.56099,-0.318813,-2.37205,0.0348454,0.0103148,0.0163723,-44.3152,15.0647,1.66041,0.548917,0.371092,0.698467,0.270417
108,3802.23,24,137.0,30.875,3.00265,-9.03006,-3.00194,2.96197,-9.12889,-2.6772,-0.0195414,0.00343704,0.00343599,13.1427,42.9939,-4.05756,0.59609,0.737317,0.314591,-0.0455399,34.125,-1.13767,9.59522,0.764917,-1.51084,9.61978,1.12051,0.00687822,-0.0340104,-0.0318981,5.247,-41.4361,18.5937,0.555294,-0.414554,-0.515231,-0.504312,31.75,9.51864,-0.305111,-2.65653,9.53064,-0.273537,-2.44771,0.0141826,-0.0194397,-0.0209849,-43.9266,14.7879,1.6621,0.548791,0.371106,0.698578,0.270365
108,3802.24,24,137.0,30.875,3.01308,-9.06532,-2.69377,3.06721,-9.14477,-2.69237,0.0524828,0.0225019,0.0417584,13.7545,43.4579,-3.66792,0.596341,0.73723,0.314302,-0.0456411,34.125,-1.25057,9.70879,0.801224,-1.45,9.72529,1.12045,-0.0155696,0.0295912,-0.0191551,4.85552,-41.5511,19.0146,0.555197,-0.414439,-0.515293,-0.504451,31.75,9.66724,-0.305738,-2.69359,9.59079,-0.258381,-2.43295,0.0383824,-0.0349605,-0.0234299,-43.9406,15.3027,1.37779,0.548629,0.371124,0.698747,0.270233
108,3802.25,24,137.0,30.875,3.15648,-9.03056,-2.92266,3.03657,-9.15969,-2.73761,0.0444371,0.0392816,0.0187983,13.396,42.4842,-3.79252,0.596626,0.737077,0.314121,-0.0456465,34.125,-1.21102,9.82189,0.840294,-1.46487,9.71017,1.16583,-0.0310409,-0.0124277,-0.0118608,4.35904,-42.3061,18.5925,0.554967,-0.414439,-0.515127,-0.504872,31.75,9.62211,-0.303252,-2.9642,9.6059,-0.167609,-2.41818,0.0645836,-0.0169622,-0.00192326,-44.566,15.0785,2.08501,0.54848,0.371306,0.698895,0.269903
108,3802.26,24,135.0,30.875,3.0498,-8.83865,-2.77096,2.96058,-9.18939,-2.78277,0.0310194,0.0580816,0.0117095,13.0179,42.6287,-3.39893,0.596846,0.737007,0.313878,-0.0455571,34.125,-1.29097,9.7084,0.723051,-1.49448,9.77059,1.1813,-0.000507091,0.00775177,-0.0303748,5.51285,-41.8327,18.4568,0.55519,-0.41434,-0.515238,-0.504595,31.75,9.55406,-0.266737,-2.73359,9.56085,-0.122244,-2.41809,0.00222462,-0.0227772,0.00494773,-43.9336,15.0453,1.51994,0.548343,0.371447,0.698917,0.269931
108,3802.27,24,135.0,30.875,2.85711,-8.98962,-2.85031,3.00769,-9.03864,-2.70764,0.0392406,0.0517667,0.019969,13.0112,43.1255,-3.40193,0.597107,0.736903,0.313635,-0.0454958,34.125,-1.43896,9.67226,0.875372,-1.47951,9.8008,1.13596,0.0039232,-0.0131655,-0.0122356,5.2438,-40.9198,18.3087,0.555338,-0.414386,-0.515242,-0.50439,31.75,9.55476,-0.342995,-2.69452,9.57585,-0.212991,-2.41788,0.0124651,-0.0230441,0.0136373,-43.6809,15.1614,1.5207,0.548208,0.37167,0.69894,0.269838
108,3802.28,24,135.0,30.875,2.89303,-9.06612,-2.888,2.96185,-9.11382,-2.70743,0.0737727,0.0725478,0.0235977,13.3808,43.6019,-3.79927,0.597569,0.736651,0.313352,-0.0454674,34.125,-1.28859,9.74657,0.800412,-1.49428,9.80077,1.18139,-0.0087864,-0.0213265,-0.0149536,5.76619,-41.7132,18.5989,0.555708,-0.414378,-0.515224,-0.504008,31.75,9.58629,-0.417563,-2.88668,9.53074,-0.379375,-2.4171,0.0406675,0.0335295,0.00400148,-44.4426,14.6828,0.951245,0.548732,0.371006,0.698837,0.269954
108,3802.29,24,135.0,30.875,2.93028,-8.95293,-2.92631,3.02111,-9.25015,-2.69209,0.0145714,0.0717373,0.0319899,13.6324,43.2163,-3.53497,0.59773,0.73671,0.312929,-0.0453117,34.125,-1.24361,9.748,1.03355,-1.52398,9.87632,1.16667,-0.0243147,0.0188164,-0.0150113,5.39532,-41.9567,17.8927,0.555801,-0.414237,-0.515262,-0.503983,31.75,9.62521,-0.342185,-2.84816,9.50079,-0.243238,-2.40225,0.0414321,0.0317594,-0.00625371,-44.0652,15.3098,1.66101,0.548744,0.371136,0.698803,0.269837
108,3802.3,24,135.0,30.875,2.85471,-9.14171,-2.88832,2.94601,-9.24958,-2.66181,0.0322819,0.058594,0.0292901,13.7589,43.4573,-4.19285,0.598055,0.73654,0.312706,-0.0453215,34.125,-1.17061,9.82229,0.918466,-1.44933,9.81583,1.13582,-0.0104961,-0.0419873,0.0264294,4.74032,-41.675,18.3095,0.555666,-0.414472,-0.515005,-0.504201,31.75,9.77362,-0.38078,-2.88498,9.54545,-0.364339,-2.49291,0.0572426,-0.0351562,0.018368,-43.6871,15.1601,0.953349,0.548855,0.370918,0.698951,0.26953
108,3802.31,24,135.0,30.875,2.82226,-9.14008,-2.73486,2.84027,-9.20358,-2.73731,0.00853601,0.0932514,0.027592,13.014,43.0012,-3.53242,0.598276,0.736527,0.312336,-0.0451692,34.125,-1.32929,9.63321,0.722601,-1.47972,9.74039,1.16601,-0.0327509,-0.00105502,0.0270644,5.37974,-41.6989,18.5961,0.555765,-0.414478,-0.514869,-0.504225,31.75,9.52013,-0.229495,-2.6184,9.51573,-0.318878,-2.41722,0.0330297,-0.0189578,0.00900331,-43.9305,14.5281,0.811394,0.549184,0.370344,0.698974,0.26959
108,3802.32,24,135.0,30.875,2.88822,-9.18095,-3.00315,2.87015,-9.24909,-2.72214,-0.0169612,0.0916516,0.0163446,13.3848,43.2295,-3.66578,0.598397,0.736585,0.312001,-0.0449363,34.125,-1.14767,9.70585,0.415888,-1.52537,9.77084,1.04547,0.0052413,-0.0403118,-0.00830407,5.12284,-41.4312,18.3108,0.555849,-0.414599,-0.514812,-0.504092,31.75,9.73769,-0.304927,-2.84723,9.56094,-0.273457,-2.38733,-0.013884,-0.0162147,-0.0399342,-44.0582,15.0523,1.80316,0.548883,0.370575,0.699069,0.269635
108,3802.33,24,135.0,30.875,2.92467,-9.18157,-3.04109,2.93005,-9.30992,-2.70697,-0.00124604,0.0916268,-0.0544768,13.0257,42.3798,-3.92237,0.598681,0.736371,0.312018,-0.0445437,34.125,-1.29242,9.59518,0.684672,-1.49585,9.71045,1.0149,0.0355944,-0.0653067,0.011204,5.63258,-40.934,18.1705,0.556139,-0.414897,-0.514756,-0.503583,31.75,9.51824,-0.381048,-2.65606,9.54598,-0.273441,-2.37212,0.0313302,-0.0174433,-0.00595398,-44.3195,15.1933,1.51841,0.54881,0.370639,0.699135,0.269527
108,3802.34,24,135.0,30.875,2.96994,-9.06637,-2.84836,2.91561,-9.30974,-2.63145,0.00102065,0.0796252,-0.0364514,13.644,42.8429,-4.32013,0.59896,0.736163,0.312012,-0.0442687,34.125,-1.1329,9.67156,0.919639,-1.49567,9.69529,1.06019,0.0485282,-0.0583063,-0.00628802,4.9858,-41.0394,18.4486,0.556124,-0.4152,-0.514735,-0.503372,31.75,9.43789,-0.378968,-2.84985,9.54574,-0.213016,-2.43285,0.0249525,-0.0309493,0.000992216,-44.5805,15.4638,1.51718,0.548642,0.370805,0.699232,0.269389
108,3802.35,24,135.0,30.875,2.90319,-8.94996,-2.61883,2.9317,-9.21922,-2.60146,-0.00846912,0.088918,-0.0270838,13.2632,43.1118,-3.79606,0.599178,0.736072,0.311859,-0.043911,34.125,-1.17216,9.67142,0.880208,-1.41971,9.80075,1.07515,0.0278623,-0.0991846,-0.0129949,5.00348,-42.2008,18.4553,0.556208,-0.4156,-0.5145,-0.50319,31.75,9.51314,-0.303505,-2.84955,9.53058,-0.243306,-2.46295,0.0248048,-0.00901092,0.000409828,-44.0508,14.4066,1.23661,0.548857,0.37041,0.699226,0.269509
108,3802.36,24,135.0,30.875,3.01362,-8.98944,-2.69402,3.02339,-9.11412,-2.55649,0.00786815,0.0513804,-0.0640129,13.01,43.3736,-3.6659,0.599423,0.735854,0.311953,-0.0435602,34.125,-1.17683,9.63273,0.725365,-1.35965,9.75529,1.10488,0.0161443,-0.0275839,0.0091308,4.48662,-41.9236,18.3092,0.555888,-0.415895,-0.514326,-0.503476,31.6875,9.43919,-0.34132,-2.81148,9.48569,-0.30376,-2.41711,-0.00305119,0.0253231,0.00223398,-43.677,14.9033,1.37918,0.548935,0.37043,0.699132,0.269569
108,3802.37,24,135.0,30.875,3.16584,-8.83885,-2.69225,2.97918,-9.06843,-2.48104,0.00515743,0.0612569,-0.097989,13.3876,42.8572,-3.40107,0.599565,0.735757,0.311983,-0.0430132,34.125,-1.26191,9.74386,0.413695,-1.3754,9.78573,0.953937,-0.00385579,0.0520086,0.00464579,4.4773,-41.9239,18.8731,0.555419,-0.415885,-0.514398,-0.503929,31.6875,9.54887,-0.417326,-2.88706,9.42552,-0.379416,-2.43168,0.0263186,-0.0162165,0.0145255,-44.0524,14.9241,2.08699,0.548741,0.370802,0.699244,0.269159
108,3802.38,24,135.0,30.875,3.09908,-8.72244,-2.46271,2.99477,-8.96286,-2.52659,0.00188049,0.0539468,-0.0581591,13.8928,42.8296,-4.32055,0.599772,0.735566,0.31208,-0.0426874,34.125,-1.26301,9.32967,0.415021,-1.48307,9.68071,0.667143,-0.133769,0.130417,0.00584404,4.73872,-41.4169,18.167,0.555121,-0.415282,-0.514458,-0.504692,31.6875,9.50984,-0.302541,-2.96535,9.51547,-0.349202,-2.47766,0.0640191,0.0151589,0.0338247,-44.5766,15.2057,1.37566,0.548987,0.370688,0.699225,0.268865
108,3802.39,24,135.0,30.875,2.97502,-8.91361,-2.73334,3.01009,-8.96295,-2.4964,-0.00424303,0.0671565,-0.0904009,13.5159,42.7261,-3.663,0.59991,0.73547,0.312117,-0.0421398,34.125,-0.97482,9.63473,1.11623,-1.37697,9.45356,1.04366,-0.105826,0.0624369,-0.0292642,5.64633,-41.8373,18.1758,0.55547,-0.414784,-0.514464,-0.504713,31.6875,9.47782,-0.532043,-2.73272,9.51568,-0.288647,-2.43245,0.0251825,0.0298935,-0.00710171,-44.45,15.3285,1.5178,0.549051,0.370705,0.699178,0.268834
108,3802.4,24,135.0,30.875,2.90105,-8.87475,-2.69609,2.94956,-8.93236,-2.55681,-0.00412785,0.10171,-0.080928,13.3936,43.2283,-4.71565,0.60029,0.735086,0.312353,-0.0416786,34.125,-1.23869,9.44807,1.22822,-1.35692,9.6035,1.72404,-0.158445,0.0289051,-0.00280541,4.87024,-41.2925,17.8852,0.555735,-0.414303,-0.514008,-0.505279,31.6875,9.66704,-0.343707,-2.69336,9.54609,-0.303654,-2.34175,0.0351108,-0.00905423,0.0287951,-44.9613,15.2244,1.23246,0.549232,0.370579,0.699133,0.268754
108,3802.41,24,135.0,30.875,2.6703,-8.87401,-2.81501,2.8899,-8.91677,-2.49638,0.0454933,0.0805151,-0.0926625,13.1333,43.3671,-3.53488,0.600632,0.734824,0.312372,-0.0412064,34.125,-1.32914,9.25693,0.762548,-1.52443,9.40786,1.58847,-0.0309988,0.00318886,-0.0134974,5.14002,-41.9471,17.7498,0.555861,-0.414114,-0.513936,-0.505369,31.6875,9.55166,-0.304063,-2.81056,9.57626,-0.30361,-2.31164,-0.00187082,-0.0170233,-0.00209873,-44.3367,15.7074,0.950429,0.549187,0.370625,0.699119,0.268819
108,3802.42,24,135.0,30.875,2.90399,-8.83614,-2.6192,2.82874,-8.99187,-2.52635,0.0247394,0.0497306,-0.073873,12.6465,42.7724,-3.79275,0.600947,0.73451,0.312538,-0.0409546,34.125,-1.34207,9.55505,0.296694,-1.55867,9.37867,0.923636,0.0584499,-0.0785484,-0.0161718,4.35547,-41.9189,18.4492,0.555588,-0.414437,-0.513948,-0.505393,31.6875,9.48062,-0.41878,-2.65622,9.51608,-0.409517,-2.32612,-0.001429,-0.0032327,-0.00275598,-44.3172,14.9348,1.23506,0.549309,0.370463,0.699067,0.268927
108,3802.43,24,135.0,30.875,2.93643,-8.83777,-2.77266,2.87471,-8.87141,-2.55686,0.026023,0.115299,-0.062548,13.391,42.6088,-3.39957,0.601159,0.734488,0.312256,-0.0403837,34.0625,-1.3676,9.55802,0.722152,-1.55898,9.49966,0.742638,-0.0522919,-0.0278917,-0.0185352,4.6142,-41.5411,18.0259,0.55553,-0.414341,-0.513856,-0.505629,31.6875,9.51785,-0.456985,-2.6556,9.50119,-0.394358,-2.29582,0.0126141,-0.0174781,0.00344929,-43.9367,15.0446,1.23627,0.54934,0.370439,0.699065,0.268901
108,3802.44,24,135.0,30.875,2.90372,-8.68472,-2.65821,2.85927,-8.87134,-2.60215,0.0121008,0.0390411,-0.0593424,13.1294,43.4916,-3.27316,0.601203,0.734472,0.312244,-0.0401191,34.0625,-1.46613,9.4867,1.26269,-1.64735,9.45408,1.10574,-0.0109166,-0.00385307,0.00866529,5.01121,-41.9424,17.7489,0.555471,-0.414261,-0.513895,-0.505719,31.6875,9.70596,-0.268328,-2.65484,9.47092,-0.288564,-2.35654,-0.00151915,0.0196248,0.00612326,-44.1957,15.445,1.66039,0.549232,0.370796,0.698976,0.268861
108,3802.45,24,135.0,30.875,2.90345,-8.91202,-2.61896,2.81481,-8.87094,-2.5115,-0.00991905,0.109165,-0.0498459,13.0145,43.125,-3.79563,0.601423,0.734373,0.312112,-0.039654,34.0625,-1.4627,9.48747,1.37891,-1.61466,9.4534,1.54381,0.00968678,0.0445595,-0.0258137,5.12088,-41.3022,18.3101,0.555482,-0.414005,-0.514119,-0.50569,31.6875,9.66684,-0.381675,-2.69313,9.50078,-0.303738,-2.40205,0.0436373,-0.0310219,-0.017865,-44.5984,15.7188,0.382166,0.549392,0.370263,0.699167,0.268772
108,3802.46,24,135.0,30.875,2.93562,-8.76223,-2.81142,2.82924,-8.93147,-2.52649,-0.0180683,0.0669356,-0.02959,13.1432,43.1178,-4.32078,0.601626,0.734197,0.312161,-0.0394577,34.0625,-1.35587,9.67357,1.1092,-1.61309,9.55884,1.69523,0.0749351,0.061349,-0.0365984,5.00152,-42.0717,18.4546,0.555273,-0.413868,-0.514531,-0.505611,31.6875,9.58799,-0.303979,-2.84877,9.63618,-0.243153,-2.35756,0.00215915,-0.0230007,-0.014748,-44.4562,15.3272,0.950449,0.54939,0.370099,0.699203,0.268909
108,3802.47,24,135.0,30.875,2.71477,-8.87262,-2.62191,2.92055,-8.87167,-2.48141,-0.00388396,0.0944193,-0.0126412,12.647,42.8963,-4.05597,0.601946,0.734,0.312044,-0.039175,34.0625,-1.28038,9.82369,1.07136,-1.47774,9.72481,1.51354,0.119849,0.0370131,-0.043626,5.64007,-41.5793,18.3152,0.555299,-0.41397,-0.51501,-0.505012,31.6875,9.59149,-0.266974,-2.7332,9.54599,-0.228066,-2.37226,0.00437115,-0.0112054,0.0286941,-44.0722,15.0493,0.526626,0.549648,0.369754,0.69915,0.268998
108,3802.48,24,135.0,30.875,2.85577,-8.98995,-2.88882,2.91879,-8.96239,-2.60201,0.00999756,0.0684883,-0.021653,12.7568,43.6354,-3.53574,0.60213,0.733915,0.311916,-0.0389506,34.0625,-1.24769,9.93523,0.877982,-1.41771,9.84563,1.36241,0.0706041,-0.0163123,-0.0465645,5.12015,-41.5604,18.5935,0.555347,-0.414145,-0.515172,-0.50465,31.6875,9.62663,-0.494701,-2.77002,9.54579,-0.273497,-2.41752,-0.028383,0.00519003,0.00985589,-44.8219,14.9617,1.80058,0.549545,0.370006,0.699082,0.269035
108,3802.49,24,135.0,30.875,3.08973,-8.91415,-2.69313,2.94791,-9.06833,-2.61691,0.0191051,0.0762815,0.0121415,12.8956,43.1309,-4.45159,0.602507,0.733635,0.31185,-0.0389154,34.0625,-1.20853,9.89772,0.917534,-1.40237,9.9211,1.33231,-0.0280465,0.000895562,-0.0202595,4.48342,-41.4073,18.0242,0.555217,-0.414128,-0.51502,-0.504961,31.6875,9.51545,-0.494311,-2.73257,9.56103,-0.394419,-2.35667,-0.0112028,-0.0151455,-0.00919533,-43.9465,15.4309,1.09395,0.54945,0.370116,0.699088,0.269066
108,3802.5,24,135.0,30.875,2.86112,-8.79925,-2.77392,2.97882,-8.93267,-2.66254,0.0193071,0.0448278,0.0236627,13.2621,43.1119,-3.66482,0.602608,0.733666,0.311585,-0.0388915,34.0625,-1.43856,9.82287,0.874889,-1.49316,9.90631,1.25725,-0.0169365,0.0213095,-0.0157749,4.99746,-41.0391,17.7437,0.555225,-0.414023,-0.515043,-0.505015,31.6875,9.66614,-0.305417,-2.7322,9.53106,-0.349032,-2.34153,0.0129734,-0.0307468,-0.0187309,-44.8227,15.2205,2.22577,0.549078,0.370542,0.699275,0.268749
108,3802.51,24,135.0,30.875,2.90265,-8.83647,-2.65771,2.93374,-8.90216,-2.67766,0.0558391,0.0520892,0.0210318,12.898,42.6348,-3.92366,0.60293,0.733469,0.311417,-0.038956,34.0625,-1.40616,9.82145,0.681876,-1.50876,9.86113,1.21188,-0.0123511,0.0552688,0.00471075,4.75284,-42.1911,18.0305,0.554918,-0.413924,-0.515104,-0.505372,31.6875,9.51714,-0.380727,-2.69467,9.5759,-0.243222,-2.40265,-0.00250483,-0.0625826,-0.00882956,-43.4145,14.6332,1.52225,0.548842,0.370624,0.699417,0.268749
108,3802.52,24,135.0,30.875,3.07903,-9.10619,-2.96206,2.94741,-9.02311,-2.72272,0.0451028,0.0470858,0.058332,13.1383,42.9945,-3.53263,0.603085,0.73351,0.311006,-0.0390863,34.0625,-1.3676,9.55802,0.722152,-1.54035,9.69529,1.13602,-0.0510614,-0.033554,0.0475615,5.25522,-41.8232,18.455,0.555062,-0.413974,-0.514831,-0.50545,31.6875,9.40706,-0.380658,-2.61862,9.51597,-0.349054,-2.35658,-0.0677264,-0.000590293,0.0207265,-43.9367,15.0446,1.23627,0.548816,0.370813,0.699242,0.268998
108,3802.53,24,135.0,30.875,3.04258,-9.10556,-2.92412,2.9013,-9.20394,-2.64677,0.0334266,0.0857286,0.0719609,12.7702,43.1377,-4.32014,0.603506,0.7333,0.310665,-0.0392304,34.0625,-1.39915,9.44673,0.954268,-1.60047,9.57449,1.27205,0.000956299,-0.00706225,0.0413607,5.39496,-42.0858,18.0344,0.555086,-0.414015,-0.514801,-0.505421,31.6875,9.70176,-0.229074,-2.80948,9.50115,-0.333877,-2.31115,-0.0231531,-0.0155669,-0.0123817,-43.7977,14.6523,1.52088,0.54876,0.370827,0.699205,0.269186
108,3802.54,24,135.0,30.875,2.89784,-9.14066,-2.73373,2.91599,-9.24935,-2.64668,0.0304824,0.054822,0.0751027,13.2632,43.1118,-3.79606,0.603688,0.733345,0.310185,-0.0393942,34.0625,-1.24421,9.52208,1.03427,-1.57006,9.48365,1.42273,0.0451582,-0.0983653,0.0231745,5.12677,-41.6893,18.3123,0.55523,-0.414381,-0.514608,-0.50516,31.6875,9.55087,-0.455937,-2.80962,9.53089,-0.288588,-2.38713,0.0180872,-0.0323472,-0.000614438,-43.8176,15.2953,0.952733,0.548753,0.370714,0.699287,0.269144
108,3802.55,24,135.0,30.875,2.78741,-8.91181,-2.69767,2.88661,-9.23397,-2.57118,0.0350189,0.0841998,0.0761103,13.1433,42.8699,-3.92558,0.603988,0.73332,0.309648,-0.0394793,34.0625,-1.28536,9.67204,0.916876,-1.50931,9.6043,1.39248,0.0176479,-0.0744286,0.048596,5.1323,-42.2055,18.4563,0.555282,-0.414721,-0.51433,-0.505107,31.6875,9.59369,-0.267616,-2.65599,9.57578,-0.243259,-2.43291,0.0107577,-0.0193895,-0.0272953,-43.8203,15.4242,0.952574,0.548692,0.370578,0.699381,0.269211
108,3802.56,24,135.0,30.875,2.85684,-9.02756,-2.85019,2.87192,-9.18855,-2.57127,0.0434163,0.0438006,0.0615463,13.0184,43.0006,-4.05735,0.604301,0.733178,0.309345,-0.039706,34.0625,-1.40219,9.59657,0.837563,-1.4945,9.69502,1.25664,0.0804302,-0.0348653,0.0453084,4.74192,-41.9332,18.452,0.554953,-0.415166,-0.514318,-0.505115,31.6875,9.59058,-0.228684,-2.77204,9.54592,-0.24321,-2.38735,0.004069,0.00876074,-0.00262903,-43.8113,15.2967,1.52008,0.548596,0.370803,0.699337,0.269214
108,3802.57,24,135.0,30.875,3.01576,-9.06465,-2.61676,2.90295,-9.11324,-2.54126,0.0389841,0.0331866,0.0435982,13.2649,42.9876,-3.79531,0.604496,0.733142,0.30903,-0.0398408,34.0625,-1.20903,9.70945,0.918137,-1.55492,9.75567,1.1514,0.063741,-0.0842662,0.0180126,5.1307,-41.9474,18.3138,0.554998,-0.415581,-0.514249,-0.504795,31.6875,9.44029,-0.341642,-2.77288,9.57585,-0.197866,-2.41793,-0.0169988,-0.0375485,0.00318314,-44.3184,15.0641,1.37674,0.548461,0.370875,0.699366,0.269312
108,3802.58,24,135.0,30.875,3.12832,-8.98998,-2.65381,2.93397,-9.08319,-2.46586,0.0637273,0.0297506,0.0546732,13.2704,42.9868,-4.45147,0.604919,0.732856,0.308845,-0.040116,34.0625,-1.1331,9.59626,0.919881,-1.48027,9.69517,1.12055,0.00588909,-0.0184611,0.0384419,5.00888,-41.9424,17.8899,0.554886,-0.415768,-0.514137,-0.504878,31.6875,9.59219,-0.343232,-2.69413,9.59089,-0.152487,-2.41815,-0.0184707,-0.0301998,0.0016727,-44.0644,15.051,1.23581,0.548364,0.370893,0.699373,0.269467
108,3802.59,24,135.0,30.875,3.12805,-8.6492,-2.73194,2.98045,-8.97777,-2.42083,0.0707959,0.0517341,0.0588176,13.3941,43.1042,-4.58367,0.605409,0.73255,0.308587,-0.0403093,34.0625,-1.25525,9.6701,0.646381,-1.46562,9.63477,1.12028,0.0000854359,-0.0576704,0.0318156,5.00691,-41.8134,17.8892,0.554915,-0.416017,-0.513916,-0.504866,31.6875,9.55237,-0.380321,-2.77149,9.5909,-0.318843,-2.40248,-0.0282406,-0.0153217,-0.0068786,-44.7058,15.2117,1.23337,0.548347,0.37084,0.699343,0.269652
108,3802.6,24,135.0,30.875,2.98144,-8.76051,-2.57981,3.07189,-8.85761,-2.42119,0.0700502,-0.000126199,0.0888864,13.0179,42.8767,-3.79413,0.60569,0.732452,0.308223,-0.0406581,34.0625,-1.36646,9.55828,0.760893,-1.47976,9.63459,1.27149,-0.0376143,-0.0343104,0.0114519,5.2459,-41.8234,19.0189,0.555157,-0.416024,-0.513704,-0.50481,31.6875,9.51895,-0.457306,-2.61699,9.51561,-0.288666,-2.44758,0.0313119,-0.0167836,-0.0193394,-44.4554,15.5863,1.51748,0.548195,0.370953,0.699458,0.26951
108,3802.61,24,135.0,30.875,3.12778,-8.68714,-2.73182,3.1009,-8.87303,-2.54199,0.0363531,0.0275598,0.0534094,13.3876,43.1051,-3.79627,0.605828,0.732471,0.307896,-0.0407375,34.0625,-1.24838,9.67166,0.878826,-1.47921,9.66469,1.33203,-0.0282208,-0.0792666,0.00649479,4.4773,-41.9239,18.8731,0.555185,-0.41616,-0.51337,-0.505006,31.6875,9.51644,-0.304468,-2.73374,9.44104,-0.394389,-2.31063,0.0172689,-0.00470512,-0.00193284,-44.9461,14.5804,1.37509,0.548476,0.370554,0.699369,0.269717
108,3802.62,24,135.0,30.875,3.09561,-8.83693,-2.53936,3.16168,-8.87341,-2.48165,0.0110042,0.0522605,0.0555469,13.4968,44.2162,-3.80323,0.605942,0.732546,0.307499,-0.0406694,34.0625,-1.25306,9.63297,0.723983,-1.49497,9.64978,1.22629,0.0262251,-0.054934,-0.0467908,4.48968,-41.6653,17.8847,0.555145,-0.41629,-0.513337,-0.504978,31.6875,9.55527,-0.457222,-2.65521,9.47079,-0.318851,-2.38671,0.0271892,0.01132,0.00927189,-44.1793,14.6717,1.66134,0.548597,0.370506,0.699326,0.269649
108,3802.63,24,135.0,30.875,3.17172,-8.76163,-2.53847,3.20727,-8.8737,-2.43639,0.0469781,0.0575346,0.0419818,13.5007,43.8438,-3.66974,0.606177,0.732534,0.307082,-0.0405569,34.0625,-1.11214,9.59225,0.339459,-1.46587,9.66506,1.04481,0.0196689,0.00116931,-0.027603,4.4757,-41.6657,18.7306,0.55492,-0.416299,-0.513453,-0.505099,31.6875,9.48062,-0.41878,-2.65622,9.48631,-0.333824,-2.26566,-0.0303622,-0.00147552,-0.010693,-44.5723,15.0771,1.51766,0.548534,0.37062,0.699236,0.269851
108,3802.64,24,135.0,30.875,3.23982,-8.87771,-2.72949,3.19195,-8.88871,-2.45145,-0.0295964,0.0612466,0.0436084,13.3864,43.3532,-4.06023,0.606227,0.732629,0.306779,-0.0403739,34.0625,-1.18265,9.59378,0.531781,-1.48172,9.6804,0.893823,0.0537391,-0.0269927,-0.0125124,4.99722,-41.9428,18.5948,0.554855,-0.416508,-0.513593,-0.504856,31.6875,9.587,-0.493822,-2.84761,9.53117,-0.39437,-2.31111,-0.0339046,-0.00543929,-0.0131027,-44.0644,15.051,1.23581,0.548516,0.370626,0.699171,0.270049
108,3802.65,24,135.0,30.875,3.15461,-8.91741,-3.00005,3.2516,-8.94956,-2.46647,-0.0217093,0.0816174,0.0493826,13.5124,43.2224,-4.0597,0.606325,0.732731,0.306374,-0.0401257,34.0625,-1.0278,9.63148,0.611906,-1.37627,9.63478,0.968617,0.0560336,-0.0182311,-0.00145324,4.99992,-41.8136,18.3121,0.554753,-0.41678,-0.513682,-0.504653,31.6875,9.58469,-0.303015,-2.96458,9.51591,-0.349073,-2.37172,0.0247263,-0.0100015,-0.0153544,-44.568,14.9486,1.65966,0.548495,0.370594,0.699231,0.26998
108,3802.66,24,135.0,30.875,3.0793,-9.06825,-2.96218,3.17308,-9.22093,-2.5715,-0.014138,0.0494104,0.029223,13.5086,43.3469,-3.79798,0.60634,0.732849,0.30608,-0.039984,34.0625,-1.06114,9.70794,0.765937,-1.31546,9.66472,1.0439,0.0732348,-0.0769181,-0.0144682,4.22396,-42.0433,18.731,0.554463,-0.417264,-0.513599,-0.504656,31.6875,9.47881,-0.3422,-2.73389,9.54573,-0.25839,-2.43271,-0.00296237,-0.0235941,-0.0116161,-44.0512,14.7949,1.94532,0.54826,0.370827,0.699324,0.269898
108,3802.67,24,135.0,30.875,3.1621,-9.18064,-2.72964,3.09621,-9.31108,-2.66183,0.00653818,0.0591327,0.064902,13.7557,43.2098,-3.40395,0.606307,0.733121,0.305501,-0.0399334,34.0625,-1.02512,9.78261,0.688905,-1.25476,9.66446,1.13421,0.0693552,-0.0203053,-0.0165527,4.99526,-41.8137,18.5941,0.554419,-0.417582,-0.513672,-0.504366,31.6875,9.62871,-0.30518,-2.73258,9.56085,-0.137369,-2.41804,-0.0352759,0.0311981,-0.0111873,-43.6812,15.0319,1.23718,0.548278,0.370845,0.699176,0.270219
108,3802.68,24,135.0,30.875,3.00961,-9.17981,-2.77041,3.08215,-9.22033,-2.63182,0.0343097,0.0310785,0.0309352,12.8995,43.0065,-4.71331,0.606723,0.732733,0.305583,-0.0401181,34.0625,-1.17633,9.821,0.724762,-1.34387,9.80043,1.18048,0.137886,-0.0857369,-0.0518117,4.3594,-42.177,18.4507,0.554181,-0.418175,-0.513775,-0.504032,31.6875,9.62632,-0.342506,-2.80955,9.60581,-0.273502,-2.43298,0.000361818,-0.0529331,-0.00873153,-43.8031,14.91,1.52056,0.548055,0.370958,0.699312,0.270165
108,3802.69,24,135.0,30.875,3.00827,-9.18014,-2.80892,2.99109,-9.26501,-2.66183,-0.0331882,0.0274417,0.00319708,13.262,43.6078,-4.45522,0.606786,0.73264,0.305679,-0.0401202,34.0625,-1.17822,9.97109,0.646798,-1.29892,9.81549,1.13491,0.0969949,-0.0479774,-0.0573266,4.7337,-41.5461,18.5908,0.554142,-0.418531,-0.513922,-0.503629,31.6875,9.59129,-0.304943,-2.73297,9.59085,-0.273487,-2.41776,-0.00497413,-0.00648311,-0.0138241,-43.9231,14.4002,1.23706,0.548212,0.370609,0.699274,0.270424
108,3802.7,24,135.0,30.875,2.86219,-9.21558,-2.65704,2.97665,-9.29501,-2.55604,-0.00271542,0.048033,0.0025886,13.2682,42.9871,-4.18901,0.606944,0.732548,0.305597,-0.0400463,34.0625,-1.17787,9.67013,0.686504,-1.34423,9.80052,1.12003,0.0723655,0.00270634,-0.0532272,4.73763,-41.8042,18.5923,0.553992,-0.418684,-0.514154,-0.50343,31.6875,9.66814,-0.344028,-2.65476,9.54575,-0.167641,-2.433,-0.0316878,0.0121524,-0.0310499,-44.3156,14.9352,1.37689,0.548173,0.370529,0.699224,0.270742
108,3802.71,24,135.0,30.875,2.82788,-9.10079,-2.58096,2.93118,-9.32489,-2.55593,-0.00189466,0.0694142,-0.0109156,13.7568,43.2097,-3.53519,0.606939,0.732711,0.305251,-0.0397644,34.0625,-1.33168,9.59504,0.64524,-1.40517,9.6648,1.13512,0.031897,0.0044304,-0.0603613,4.98557,-41.9431,19.2998,0.554048,-0.418641,-0.514354,-0.5032,31.6875,9.51364,-0.417732,-2.81024,9.57577,-0.258384,-2.43287,-0.0119465,-0.0140261,0.0152331,-44.8355,15.0882,0.80756,0.548356,0.370223,0.699194,0.270866
108,3802.72,24,135.0,30.875,2.86567,-9.10109,-2.5804,2.88762,-9.21877,-2.46551,-0.00465046,0.0834517,-0.0455936,13.2659,43.2354,-4.32174,0.607205,0.732501,0.305266,-0.0394465,34.0625,-1.40104,9.59683,0.876304,-1.49506,9.6498,1.21118,0.0491283,-0.0213482,-0.0435368,4.34295,-41.4029,18.7282,0.553844,-0.41872,-0.514486,-0.503224,31.6875,9.48062,-0.41878,-2.65622,9.50077,-0.318863,-2.402,-0.0130003,0.00992189,-0.0255075,-43.9285,14.658,1.23675,0.548445,0.369998,0.699162,0.271075
108,3802.73,24,135.0,30.875,2.94044,-9.02613,-2.61802,2.84279,-9.15805,-2.4807,-0.0333834,0.0925609,-0.030634,13.3886,43.3529,-4.3227,0.60735,0.732429,0.305196,-0.0391077,34.0625,-1.36541,9.52089,0.799754,-1.54047,9.60462,1.21132,0.064939,-0.0259639,-0.0895763,4.98936,-41.4266,18.5919,0.553986,-0.418691,-0.514792,-0.502779,31.6875,9.51483,-0.18992,-2.81164,9.50098,-0.243183,-2.35684,0.0250557,-0.000207002,-0.0105353,-44.6945,14.8257,1.51752,0.548501,0.369886,0.69917,0.271095
108,3802.74,24,135.0,30.875,2.78581,-8.95009,-2.73605,2.91928,-9.11322,-2.39027,-0.00638207,0.0843274,-0.0430811,13.0206,43.0003,-4.31982,0.607647,0.732193,0.305214,-0.0387741,34.0625,-1.32814,9.63347,0.761342,-1.58539,9.66514,1.18154,0.034858,-0.0307519,-0.0977744,5.24,-41.4363,19.0167,0.554312,-0.418554,-0.515051,-0.502268,31.6875,9.51534,-0.304147,-2.77234,9.48541,-0.182853,-2.49317,-0.0318053,0.00597148,-0.00353734,-44.7066,14.9526,0.666339,0.548691,0.369489,0.699124,0.271369
108,3802.75,24,135.0,30.875,2.90105,-8.87475,-2.69609,2.99489,-9.03829,-2.43582,-0.0178373,0.0451045,-0.0628801,13.0223,42.6282,-3.92387,0.60773,0.732095,0.305325,-0.0384328,34.0625,-1.29431,9.74527,0.606708,-1.60044,9.66517,1.18163,0.0492192,-0.0137201,-0.0540524,4.86091,-41.2927,18.4492,0.554278,-0.41854,-0.51528,-0.502083,31.6875,9.62541,-0.304216,-2.84839,9.51544,-0.243346,-2.49314,-0.0566534,0.00121672,0.000291361,-43.9313,14.7868,1.23659,0.548619,0.369581,0.69905,0.271582
108,3802.76,24,135.0,30.875,2.67752,-8.79645,-2.62273,2.85989,-8.96181,-2.43585,-0.00410071,0.0505584,-0.0859213,13.8966,42.7051,-4.58227,0.607878,0.731896,0.305551,-0.0381001,34.0625,-1.63411,9.67181,0.716954,-1.63022,9.74075,1.15181,0.0244617,-0.0461501,-0.071652,5.10959,-41.1734,18.8733,0.554525,-0.418476,-0.515422,-0.501717,31.6875,9.55646,-0.229411,-2.65661,9.54587,-0.212979,-2.40258,0.01307,-0.0781925,-0.0459587,-44.4508,15.0694,0.950767,0.54841,0.369315,0.699339,0.271622
108,3802.77,24,135.0,30.875,2.9801,-8.57148,-2.65744,2.84557,-8.90127,-2.40576,0.0189116,0.038765,-0.103549,13.3764,43.8504,-3.66953,0.607986,0.731759,0.305711,-0.0377215,34.0625,-1.40771,9.67058,0.643617,-1.66077,9.69558,1.12164,-0.00347623,-0.00813815,-0.121302,5.37238,-41.8282,19.1608,0.5549,-0.4181,-0.515722,-0.501308,31.6875,9.59168,-0.229005,-2.73343,9.5607,-0.213031,-2.44807,-0.0147923,0.0321179,-0.00876154,-44.4387,14.4247,0.809726,0.548767,0.368779,0.699196,0.271996
108,3802.78,24,135.0,30.875,2.90799,-8.64577,-2.54281,2.93664,-8.81132,-2.42115,-0.00564447,0.0282105,-0.0766357,12.8941,42.7593,-3.66194,0.608022,0.731678,0.305872,-0.0374045,34.0625,-1.44945,9.59462,0.526945,-1.61546,9.71055,1.13652,0.0330525,-0.0126866,-0.0644993,5.25179,-42.2105,19.0211,0.554986,-0.418015,-0.515945,-0.501054,31.6875,9.63021,-0.229564,-2.69445,9.59087,-0.197862,-2.41801,0.0189617,0.0212579,-0.000109425,-44.5555,14.4334,1.80213,0.54882,0.368798,0.699158,0.271961
108,3802.79,24,135.0,30.875,2.86245,-8.60955,-2.77454,2.92207,-8.73572,-2.4364,-0.0388026,0.0225907,-0.0772502,13.7635,42.7129,-3.53219,0.607802,0.731872,0.305896,-0.0369762,34.0625,-1.29336,9.67022,0.64569,-1.58611,9.68042,1.04558,0.0197715,0.0121562,-0.0760774,5.51285,-41.8327,18.4568,0.555164,-0.417803,-0.516253,-0.500717,31.6875,9.62761,-0.304859,-2.77118,9.56081,-0.258369,-2.41765,0.0212086,-0.038491,-0.0305979,-44.4418,14.9419,1.51828,0.548604,0.368848,0.699343,0.271853
108,3802.8,24,135.0,30.875,2.79196,-8.83493,-2.5824,2.86002,-8.87126,-2.51155,-0.0225825,0.048831,-0.0761913,13.271,42.8628,-4.31949,0.60788,0.731722,0.306136,-0.0366714,34.0625,-1.18131,9.66935,0.570281,-1.54154,9.63511,0.99984,0.0528046,0.00326794,-0.0786666,4.85013,-41.8094,19.5801,0.555028,-0.417741,-0.516578,-0.500584,31.6875,9.55406,-0.266737,-2.73359,9.54561,-0.243303,-2.46303,-0.0057231,-0.0567698,-0.00799578,-44.8227,14.7026,1.23355,0.5485,0.368715,0.699485,0.27188
108,3802.81,24,135.0,30.875,2.90425,-8.7982,-2.61933,2.87446,-8.90161,-2.5568,-0.0651202,0.00821824,-0.00619651,13.1422,42.87,-3.79435,0.607632,0.73193,0.30614,-0.0366098,34.0625,-1.21141,9.67128,0.840776,-1.49668,9.65018,0.939163,0.00742519,0.0366398,-0.0724085,5.63038,-41.7086,19.0209,0.555209,-0.417507,-0.516886,-0.50026,31.6875,9.59069,-0.418848,-2.73227,9.54604,-0.273423,-2.35698,0.0444138,-0.0602517,-0.0134107,-43.6668,14.6466,1.80501,0.54819,0.368964,0.699727,0.271542
108,3802.82,24,135.0,30.875,2.70729,-8.98811,-2.81407,2.84407,-8.90142,-2.58697,-0.0710085,0.0170372,-0.0460974,13.1321,43.6151,-3.79884,0.607395,0.732073,0.306293,-0.0364123,34.0625,-1.295,9.4817,0.607552,-1.48112,9.60468,1.07495,0.00408079,0.0737113,-0.0801795,5.64437,-41.7083,18.175,0.555303,-0.417137,-0.517283,-0.500053,31.6875,9.55386,-0.304706,-2.73335,9.50096,-0.333932,-2.35655,-0.00338462,-0.00981776,-0.0162144,-44.8277,15.0899,1.51675,0.54809,0.369065,0.699752,0.271543
