subject_id,timestamp_s,activity_id,heart_rate_bpm,hand_temp_c,hand_acc16_x_ms2,hand_acc16_y_ms2,hand_acc16_z_ms2,hand_acc6_x_ms2,hand_acc6_y_ms2,hand_acc6_z_ms2,hand_gyro_x_rads,hand_gyro_y_rads,hand_gyro_z_rads,hand_mag_x_ut,hand_mag_y_ut,hand_mag_z_ut,hand_orientation_w,hand_orientation_x,hand_orientation_y,hand_orientation_z,chest_temp_c,chest_acc16_x_ms2,chest_acc16_y_ms2,chest_acc16_z_ms2,chest_acc6_x_ms2,chest_acc6_y_ms2,chest_acc6_z_ms2,chest_gyro_x_rads,chest_gyro_y_rads,chest_gyro_z_rads,chest_mag_x_ut,chest_mag_y_ut,chest_mag_z_ut,chest_orientation_w,chest_orientation_x,chest_orientation_y,chest_orientation_z,ankle_temp_c,ankle_acc16_x_ms2,ankle_acc16_y_ms2,ankle_acc16_z_ms2,ankle_acc6_x_ms2,ankle_acc6_y_ms2,ankle_acc6_z_ms2,ankle_gyro_x_rads,ankle_gyro_y_rads,ankle_gyro_z_rads,ankle_mag_x_ut,ankle_mag_y_ut,ankle_mag_z_ut,ankle_orientation_w,ankle_orientation_x,ankle_orientation_y,ankle_orientation_z
105,3676.2,24,179.0,33.8125,-8.99724,3.16907,1.35715,-8.83344,3.37439,1.6414,0.0186681,0.11643,0.0426778,34.7487,-29.1627,-33.3222,0.0507484,0.579836,-0.280039,-0.763409,36.375,1.26452,9.80497,-0.470036,1.1449,9.79672,-0.194687,-0.0400623,-0.0182678,0.0262222,15.7089,-41.7876,-14.1855,0.679845,-0.665122,0.24913,0.182639,34.0625,9.36081,0.0404459,-3.0076,9.56007,0.0136392,-2.61528,-0.0198238,0.00938942,-0.0223795,-45.4318,21.4394,5.19489,0.494937,0.45873,0.651214,0.347167
105,3676.21,24,179.0,33.8125,-9.03423,3.28318,1.35621,-8.8185,3.329,1.67168,-0.0104913,0.0490797,0.0150548,35.7437,-29.7116,-32.5335,0.0507388,0.579973,-0.280168,-0.763258,36.375,1.30005,9.69137,-0.546465,1.25008,9.76628,-0.180297,-0.0179497,-0.0103868,0.00697515,15.8147,-40.8894,-13.6259,0.679891,-0.665077,0.249187,0.182556,34.0625,9.54504,0.116161,-3.12195,9.51522,0.104435,-2.56993,0.012976,-0.0292932,-0.0336843,-45.5459,20.8014,5.19523,0.494722,0.45874,0.651366,0.347176
105,3676.22,24,179.0,33.8125,-8.95892,3.43402,1.31834,-8.86308,3.37466,1.70183,0.0619143,0.0559874,0.00703186,36.2383,-29.3659,-32.799,0.0509528,0.58016,-0.28025,-0.763071,36.375,1.40981,9.68998,-0.699356,1.25017,9.76626,-0.165185,-0.0290032,-0.00547925,0.00649458,16.3448,-41.4244,-14.0422,0.679984,-0.664998,0.249209,0.182467,34.0625,9.35822,-0.0348488,-3.08434,9.43975,0.164807,-2.66053,0.0257522,-0.0543202,-0.0504278,-45.4198,20.7946,5.05385,0.494457,0.458625,0.651672,0.34713
105,3676.23,24,179.0,33.8125,-9.02274,3.39968,1.66389,-8.86245,3.45016,1.70166,0.0941752,0.0427824,0.0229033,35.4871,-28.9535,-32.8,0.0511482,0.580289,-0.2804,-0.762905,36.375,1.5256,9.80284,-0.658904,1.28026,9.7813,-0.180436,-0.0259725,-0.00561852,0.0126424,16.3433,-41.9408,-13.4752,0.679948,-0.665126,0.249103,0.182282,34.0625,9.62248,0.190982,-3.04444,9.45482,0.119454,-2.64533,0.000576244,0.0056892,0.0020594,-45.5424,20.4137,4.77019,0.494595,0.458433,0.651635,0.347256
105,3676.24,24,179.0,33.8125,-8.95037,3.51191,1.54913,-8.84762,3.48021,1.64118,0.100733,0.0419912,-0.00962493,35.6204,-29.4572,-33.0597,0.0514561,0.580454,-0.280619,-0.762678,36.375,1.52789,9.80336,-0.581422,1.34007,9.78125,-0.241247,-0.028724,-0.0361011,0.0186123,15.9505,-40.8939,-14.0479,0.680055,-0.664912,0.249383,0.182281,34.0625,9.58556,0.0769919,-3.00552,9.53021,0.210294,-2.58548,-0.0259111,0.00193225,0.0169215,-45.2963,20.9168,4.91231,0.494522,0.458562,0.651526,0.347395
105,3676.25,24,179.0,33.8125,-9.02515,3.62631,1.54763,-8.87701,3.51068,1.70155,0.100537,0.0767232,-0.023547,35.7403,-29.2153,-32.9302,0.0517681,0.58077,-0.280702,-0.762386,36.375,1.49216,9.84165,-0.504752,1.34045,9.82651,-0.226006,-0.0397746,-0.00632886,0.00679877,15.8318,-41.4053,-14.1868,0.680261,-0.664647,0.249548,0.182251,34.0625,9.43798,-0.150835,-2.88985,9.57537,0.104466,-2.55511,-0.00707325,0.0306051,0.0251173,-45.4318,21.4394,5.19489,0.494463,0.45885,0.651336,0.347454
105,3676.26,24,179.0,33.8125,-9.02461,3.51283,1.58651,-8.90664,3.5713,1.70144,0.060551,0.0523116,-0.00396738,35.495,-29.6983,-32.533,0.0519182,0.580928,-0.281029,-0.762135,36.375,1.3721,9.84071,-0.700529,1.3553,9.79629,-0.226183,-0.0420137,-0.00326727,-0.0188146,16.0786,-41.1569,-13.7635,0.680342,-0.664608,0.249453,0.182219,34.0625,9.43727,-0.0745765,-2.92892,9.60494,-0.00153166,-2.66088,-0.0311741,0.00302291,-0.0461012,-45.4248,21.182,5.33704,0.494139,0.459019,0.651376,0.347616
105,3676.27,24,179.0,33.8125,-9.06614,3.55005,1.4703,-8.80153,3.52524,1.70144,0.0407006,0.0411657,-0.00124405,35.6166,-29.5807,-32.4028,0.0520204,0.581046,-0.281236,-0.761962,36.375,1.48614,9.72739,-0.698094,1.33979,9.7662,-0.271515,-0.0434894,0.0423535,-0.00659952,15.9544,-41.152,-14.0464,0.680549,-0.664477,0.249356,0.182058,34.0625,9.43696,0.0776191,-2.96846,9.54474,0.043793,-2.69097,0.033138,-0.040308,-0.0101023,-45.0393,20.9044,5.05506,0.493993,0.459053,0.651563,0.347428
105,3676.28,24,179.0,33.8125,-9.06614,3.55005,1.4703,-8.81735,3.52527,1.61085,0.0643075,0.0344027,-0.0487831,35.4811,-29.0767,-31.8806,0.052359,0.581229,-0.281313,-0.76177,36.375,1.33264,9.76526,-0.739719,1.30999,9.79643,-0.256134,-0.051413,0.0239929,0.00635066,15.7062,-41.9168,-13.9028,0.680767,-0.664296,0.249339,0.181928,34.0625,9.39883,0.154115,-3.00792,9.54491,0.179955,-2.66114,0.00304684,-0.0236283,0.00415417,-45.5584,21.3165,5.05275,0.49384,0.459166,0.651615,0.347399
105,3676.29,24,179.0,33.8125,-9.06507,3.51245,1.50893,-8.8618,3.6162,1.61069,0.0237964,0.0442999,-0.0281028,35.7403,-29.2153,-32.9302,0.0524157,0.581474,-0.281064,-0.761672,36.375,1.41583,9.80423,-0.506013,1.27981,9.78141,-0.255996,-0.0696216,0.0551646,-0.0305672,16.4638,-40.7839,-14.045,0.680989,-0.664235,0.248983,0.181807,34.0625,9.50721,0.0404612,-3.12187,9.52995,0.17997,-2.64593,-0.0159439,0.0224522,-0.00491652,-45.5565,21.4464,5.47811,0.493616,0.459437,0.651539,0.347504
105,3676.3,24,179.0,33.8125,-9.02568,3.55043,1.54788,-8.84598,3.63126,1.68615,-0.00740095,0.0369039,-0.00368105,35.6143,-29.3324,-32.5355,0.0523221,0.581619,-0.280945,-0.761612,36.375,1.22715,9.65473,-0.431504,1.19021,9.81169,-0.179804,-0.00371176,0.0259446,-0.00260826,15.6912,-40.6263,-14.1922,0.681116,-0.664094,0.249064,0.181735,34.0625,9.54614,0.11584,-3.08335,9.56003,0.10437,-2.63071,-0.00541715,0.00433244,0.00675733,-45.6713,20.5493,4.91142,0.493734,0.45931,0.651464,0.347642
105,3676.31,24,179.0,33.8125,-9.01632,3.55278,1.81742,-8.84547,3.63131,1.74655,-0.0526656,0.0973521,-0.0265532,36.2406,-29.6141,-32.6663,0.0521174,0.582017,-0.280629,-0.761438,36.375,1.3397,9.84212,-0.507516,1.19157,9.8416,0.0167382,-0.0135352,0.0209424,0.0000253206,16.353,-41.8114,-14.1809,0.681215,-0.664084,0.248942,0.181564,34.0625,9.58057,-0.035629,-3.15923,9.59006,0.0287521,-2.63062,0.0382989,-0.0410252,0.0143244,-45.3084,21.5616,5.05335,0.493606,0.459486,0.651567,0.347399
105,3676.32,24,179.0,33.8125,-9.1026,3.55068,1.50824,-8.90639,3.6015,1.70138,-0.0519437,0.0636274,-0.036824,35.9874,-29.3523,-32.5361,0.0520149,0.582316,-0.280247,-0.761357,36.375,1.06564,9.69079,-0.744315,1.19107,9.94753,-0.179415,-0.0120552,-0.00696569,0.00151835,15.6914,-41.4008,-13.4828,0.681169,-0.664154,0.248922,0.181509,34.0625,9.42787,-0.185912,-3.23705,9.58997,-0.0468912,-2.64551,-0.00310485,-0.00163778,-0.0106228,-44.9244,21.2837,4.62953,0.49364,0.459396,0.651575,0.347455
105,3676.33,24,179.0,33.8125,-8.98709,3.66396,1.54807,-8.9202,3.63192,1.82213,-0.0854479,0.0806011,-0.0367137,36.2327,-28.8693,-32.9333,0.0517889,0.582709,-0.279406,-0.761381,36.375,1.17302,9.65123,-0.974566,1.11301,9.7821,-0.481676,-0.00744237,0.0400406,-0.0442305,16.2387,-42.4517,-14.4601,0.681155,-0.664187,0.248816,0.181588,34.0625,9.51001,0.153725,-3.04536,9.51469,-0.0015884,-2.69067,0.0000533755,-0.0105456,0.00190577,-45.3107,21.3021,4.34448,0.4938,0.459153,0.651616,0.347472
105,3676.34,24,179.0,33.8125,-8.97559,3.5911,1.89488,-8.90411,3.72245,1.85212,-0.103061,0.077003,-0.0646346,35.4911,-29.3259,-32.6665,0.0515822,0.583066,-0.278863,-0.76132,36.375,1.44897,9.65246,-0.659803,1.12767,9.73681,-0.497009,-0.0448219,0.0597948,-0.0161716,16.3589,-42.1985,-14.1787,0.681244,-0.664194,0.248614,0.181506,34.0625,9.39643,0.116788,-3.08489,9.48479,0.074067,-2.66048,0.0161826,0.0415748,-0.00859133,-45.5514,20.5412,4.20269,0.494288,0.458557,0.651529,0.347728
105,3676.35,24,179.0,33.8125,-8.8362,3.62485,1.55046,-8.8142,3.61612,1.89756,-0.0960515,0.0779014,-0.00685778,35.6083,-29.2077,-32.0113,0.0512362,0.583307,-0.27864,-0.761241,36.375,1.41876,9.61674,-0.389188,1.27878,9.67584,-0.316747,-0.0318464,-0.00228905,0.0100144,16.2245,-41.6775,-14.3236,0.68135,-0.664046,0.248753,0.181459,34.0625,9.47549,0.0770608,-2.92947,9.43974,0.149682,-2.66048,0.0118298,0.0110025,0.00450206,-45.0291,20.6477,5.48089,0.494126,0.458771,0.651554,0.347629
105,3676.36,24,179.0,33.8125,-8.95037,3.70127,1.51001,-8.83041,3.60103,1.7768,-0.0855405,0.0616251,-0.0573818,36.1067,-28.7385,-32.9338,0.0510861,0.583656,-0.277795,-0.761292,36.375,1.04085,9.5434,-0.279633,1.22117,9.76607,0.0163401,-0.02084,0.0235411,-0.006492,16.0746,-40.8988,-13.765,0.681444,-0.664075,0.248553,0.181276,34.0625,9.50942,0.0398187,-3.04466,9.49995,0.134607,-2.63049,-0.0297413,0.0447614,-0.015772,-45.6709,20.6788,5.19493,0.494114,0.458758,0.651428,0.3479
105,3676.37,24,179.0,33.8125,-8.97933,3.62803,1.77923,-8.7995,3.67633,1.79171,-0.111104,0.0833003,-0.0436464,35.606,-28.9594,-32.1441,0.0507497,0.584012,-0.277329,-0.761212,36.375,1.21636,9.46413,-0.779568,1.05373,9.52506,-0.0589122,-0.0549972,-0.00439469,-0.00697659,16.3365,-41.0373,-13.9034,0.681567,-0.664,0.248407,0.181287,34.0625,9.618,-0.0358661,-3.15885,9.48515,0.0288035,-2.56953,-0.00266551,0.00997696,0.0115439,-45.2869,20.4009,4.77111,0.49428,0.458641,0.651324,0.348013
105,3676.38,24,179.0,33.8125,-8.98254,3.55148,1.70247,-8.78406,3.63099,1.8824,-0.137415,0.0537398,-0.0374239,36.1157,-29.4835,-32.7981,0.0504028,0.584223,-0.276806,-0.761263,36.375,1.48003,9.57548,-0.891316,1.12785,9.49492,-0.210573,-0.00791075,-0.0170726,0.013215,15.9676,-41.4098,-14.6089,0.681676,-0.66375,0.248731,0.181349,34.0625,9.62079,0.0773972,-3.08234,9.51482,0.0286986,-2.66049,-0.0131532,-0.0217127,-0.0210781,-45.8053,20.5543,4.34361,0.494438,0.458248,0.651371,0.348216
105,3676.39,24,179.0,33.8125,-8.73139,3.54608,1.32137,-8.70946,3.63037,1.79172,-0.140949,0.0662549,-0.0362305,35.8625,-29.2217,-32.6679,0.0499821,0.584504,-0.276253,-0.761276,36.375,1.40877,9.72737,-0.738217,1.30823,9.66081,-0.407644,0.0513095,-0.00629837,0.0135564,15.8221,-41.5346,-13.4811,0.681365,-0.664075,0.248856,0.181154,34.0625,9.35892,-0.111107,-3.04527,9.45452,-0.0469949,-2.70534,-0.00518728,0.0145094,-0.0262316,-45.4233,21.1823,5.47888,0.494171,0.458496,0.651422,0.348175
105,3676.4,24,179.0,33.8125,-9.0632,3.3993,1.58631,-8.77051,3.52511,1.80711,-0.152137,0.102862,-0.00594891,35.7365,-29.3388,-32.2733,0.0494545,0.584847,-0.27595,-0.761157,36.375,1.37533,9.76618,-0.584065,1.37045,9.85669,-0.271437,0.0765429,0.0183391,-0.0205664,15.8275,-41.2763,-14.0466,0.681148,-0.664319,0.248926,0.180978,34.0625,9.50942,0.0398187,-3.04466,9.43982,-0.0469054,-2.62958,0.0195983,0.0147157,-0.00174458,-45.4225,20.9235,5.05369,0.494212,0.458498,0.651423,0.348111
105,3676.41,24,179.0,33.8125,-9.11035,3.39724,1.3162,-8.78558,3.51013,1.82226,-0.138904,0.0924987,0.00391654,35.7331,-28.8425,-32.6699,0.0489376,0.585178,-0.275402,-0.761135,36.375,1.30273,9.8425,-0.469466,1.28128,9.85664,-0.0895478,0.0300302,-0.0369249,0.0585834,15.8259,-41.0182,-14.1891,0.68115,-0.664191,0.249395,0.180798,34.0625,9.58266,0.153893,-3.1218,9.51501,0.0287543,-2.61509,-0.0347533,-0.00106606,-0.0595405,-45.8166,21.4582,5.05168,0.493938,0.458515,0.651485,0.348363
105,3676.42,24,138.0,33.8125,-9.09831,3.40026,1.66276,-8.83104,3.49534,1.80724,-0.112608,0.0528885,0.00632368,36.2265,-28.4966,-32.8043,0.0485509,0.585384,-0.274717,-0.761248,36.375,0.962832,9.73139,-0.3591,1.0562,9.84191,0.0175561,0.0276533,0.0326626,0.0280661,16.0766,-41.0278,-13.7643,0.681105,-0.664358,0.249305,0.180477,34.0625,9.51291,0.0768236,-2.92909,9.5151,0.119523,-2.60025,0.000429626,0.00446609,-0.0341884,-45.8178,21.5874,5.19336,0.493728,0.4586,0.65153,0.348465
105,3676.43,24,138.0,33.8125,-9.1468,3.39787,1.35414,-8.84649,3.46524,1.79222,-0.0594134,0.0587528,0.00302975,35.3628,-29.1948,-32.4046,0.0483809,0.585522,-0.274785,-0.761129,36.375,0.956468,9.91811,-0.592147,0.920368,9.8272,-0.0421172,0.0100652,0.0157067,0.0500867,15.3174,-41.9026,-13.7646,0.681199,-0.664249,0.249478,0.180283,34.0625,9.5115,0.22934,-3.00723,9.57501,0.164855,-2.64612,0.0159721,0.00902116,-0.0136236,-45.2951,20.7876,4.77063,0.493798,0.458421,0.651558,0.348549
105,3676.44,24,138.0,33.8125,-9.09377,3.47715,1.77803,-8.95173,3.54146,1.74686,-0.0955971,0.0518917,-0.0101983,35.9907,-29.3528,-32.9298,0.0481085,0.585701,-0.274536,-0.761098,36.375,1.2184,9.80327,-0.741913,1.00982,9.85742,-0.208808,0.006355,0.00665186,0.0512868,15.4404,-41.5202,-13.7659,0.681229,-0.664177,0.249708,0.180119,34.0625,9.39183,0.0801048,-3.23907,9.49983,0.13457,-2.66076,0.0395654,0.0276453,-0.0165378,-45.9311,20.6906,4.76851,0.494047,0.458057,0.651586,0.348621
105,3676.45,24,138.0,33.8125,-9.17683,3.36224,1.58473,-8.982,3.51149,1.76205,-0.0311064,0.0524244,-0.0318999,35.606,-28.9594,-32.1441,0.0481339,0.585877,-0.274548,-0.760957,36.375,1.25601,9.61489,-0.740619,1.12859,9.78194,-0.391095,-0.0219588,0.00654515,0.0186754,15.8366,-42.1797,-13.7594,0.681207,-0.664193,0.24977,0.180056,34.0625,9.43546,0.00200313,-3.0066,9.46985,0.149707,-2.64551,-0.0184603,0.023391,-0.00176339,-45.4194,20.9242,5.33736,0.493881,0.45827,0.651522,0.348696
105,3676.46,24,138.0,33.8125,-9.13905,3.5513,1.54618,-8.96668,3.5265,1.77711,-0.0341225,0.03905,0.000217222,35.9879,-29.2285,-32.7994,0.0480363,0.585974,-0.274534,-0.760893,36.375,1.40867,9.68972,-0.738096,1.30928,9.81172,-0.392099,-0.0181369,-0.00205474,0.0013326,15.3295,-41.7732,-14.6113,0.681415,-0.663825,0.250123,0.180132,34.0625,9.47219,0.0780244,-3.04528,9.51483,0.0740735,-2.66064,0.0248622,0.0476302,-0.0203278,-45.6647,20.1623,4.77006,0.494205,0.457857,0.651464,0.34889
105,3676.47,24,138.0,33.8125,-9.17042,3.51533,1.73826,-8.98036,3.57202,1.89783,0.0103276,0.0243624,-0.0447987,35.7376,-29.3389,-32.4045,0.0482794,0.586013,-0.274747,-0.76077,36.375,1.48137,9.65105,-0.852817,1.3542,9.7512,-0.362321,-0.0293765,0.0133002,0.0097426,16.3523,-42.0696,-13.8974,0.681415,-0.6639,0.250056,0.179951,34.0625,9.47179,0.00208725,-3.04481,9.49968,0.0437832,-2.69073,0.0477706,-0.00914619,-0.0105593,-45.5646,21.3152,4.48541,0.494339,0.4576,0.651617,0.34875
105,3676.48,24,138.0,33.8125,-8.98335,3.62702,1.66371,-8.99568,3.60228,1.83737,-0.012675,0.0525701,-0.0383393,35.4883,-29.2016,-32.536,0.0483648,0.586179,-0.274821,-0.76061,36.375,1.29557,9.72799,-0.701549,1.33933,9.73608,-0.316937,-0.0491464,0.0773947,-0.032703,15.6937,-41.4008,-13.6238,0.681574,-0.663935,0.249671,0.179758,34.0625,9.47128,0.116314,-3.08412,9.48486,0.0892105,-2.64539,0.0193343,0.00658939,-0.00260922,-45.5428,20.2841,4.48668,0.494596,0.457256,0.651615,0.348841
105,3676.49,24,138.0,33.8125,-9.02328,3.70252,1.58589,-8.95022,3.60198,1.86753,-0.0378615,0.013636,-0.0390895,36.1095,-29.1108,-32.6691,0.0484081,0.586222,-0.274635,-0.760642,36.375,1.55884,9.68872,-0.812815,1.29347,9.69101,-0.392354,-0.0141347,0.0551701,-0.0605151,16.0839,-40.8986,-14.329,0.681624,-0.663957,0.249452,0.179785,34.0625,9.43626,0.153877,-3.00753,9.5449,0.149705,-2.66104,0.0193512,-0.0179631,-0.0178065,-45.549,20.8007,4.91155,0.494499,0.457208,0.651742,0.348803
105,3676.5,24,138.0,33.8125,-9.05732,3.66588,1.70096,-8.97947,3.67773,1.89759,-0.0334149,0.00925116,-0.0492002,36.2271,-28.3727,-33.0675,0.0484439,0.586321,-0.273982,-0.760799,36.375,1.64308,9.6903,-0.540247,1.3541,9.73611,-0.362364,-0.0361865,-0.00789246,-0.0307159,15.3173,-41.128,-14.474,0.681841,-0.663594,0.249683,0.179985,34.0625,9.43476,0.0782615,-3.04567,9.54515,0.134654,-2.60046,-0.000372964,-0.020671,-0.0320631,-45.2959,21.0464,5.19582,0.494174,0.457389,0.651854,0.348818
105,3676.51,24,138.0,33.8125,-9.0616,3.62694,1.58557,-8.8888,3.64692,1.95797,-0.0159256,0.0343533,-0.0297783,35.858,-28.9731,-32.5382,0.0484678,0.586397,-0.273967,-0.760744,36.375,1.48574,9.57678,-0.697612,1.29401,9.69088,-0.301682,-0.0188054,0.0447937,-0.0382188,15.7039,-41.9169,-13.7618,0.681863,-0.663686,0.249435,0.179905,34.0625,9.39843,0.0781774,-3.00745,9.50033,0.149844,-2.53973,-0.0101244,0.0449357,-0.0102045,-45.5323,20.1569,5.19602,0.494218,0.457363,0.651725,0.349031
105,3676.52,24,138.0,33.8125,-9.10019,3.51341,1.58537,-8.87436,3.64675,1.88245,0.000572709,-0.0130368,-0.030257,36.1072,-28.8625,-32.8018,0.0485726,0.586329,-0.273843,-0.760835,36.375,1.60009,9.57642,-0.695539,1.21905,9.63053,-0.195617,-0.0395069,0.0515268,-0.0473967,15.9603,-41.5391,-14.0442,0.682004,-0.663667,0.249119,0.179877,34.0625,9.51052,0.0394975,-3.00606,9.5452,0.104423,-2.58522,-0.00684871,-0.010624,-0.0264717,-45.6822,21.0648,4.91078,0.49407,0.457373,0.651778,0.349128
105,3676.53,24,138.0,33.8125,-8.8362,3.62485,1.55046,-8.8294,3.6464,1.85221,0.0227753,0.00919863,0.00333907,35.9846,-28.9801,-32.8009,0.0485739,0.58629,-0.273975,-0.760817,36.375,1.45305,9.46523,-0.504237,1.27912,9.63042,-0.211093,-0.0210555,0.0352291,-0.0153654,15.1835,-41.2525,-14.0512,0.682224,-0.663454,0.249136,0.179808,34.0625,9.39804,0.00224023,-3.00698,9.5601,0.119514,-2.61562,0.0244021,0.0323323,-0.00944411,-45.1499,19.8787,4.63036,0.494364,0.457019,0.651717,0.349289
105,3676.54,24,138.0,33.8125,-8.91151,3.66337,1.54921,-8.80001,3.63101,1.77671,-0.0317254,0.00635815,0.0259323,36.2377,-29.2419,-32.931,0.0483226,0.586232,-0.274017,-0.760862,36.375,1.41325,9.69076,-0.583133,1.32427,9.69077,-0.27164,-0.000516909,0.0271424,-0.0182821,16.6099,-42.0791,-13.8956,0.682109,-0.663722,0.248885,0.179605,34.0625,9.32079,-0.0346117,-3.08472,9.57492,0.0589616,-2.66091,-0.00714938,-0.0195978,-0.0304953,-45.8006,20.5553,4.76912,0.494303,0.456869,0.651817,0.349386
105,3676.55,24,138.0,33.8125,-8.94823,3.62606,1.58727,-8.80027,3.54046,1.83731,-0.0388384,0.0256915,0.0339839,35.8736,-29.719,-33.1898,0.0481016,0.586185,-0.274247,-0.76083,36.375,1.33607,9.76604,-0.623497,1.29493,9.75113,-0.210837,0.00917434,-0.0138825,-0.0507302,16.2149,-41.8069,-13.6179,0.681892,-0.664009,0.248675,0.179655,34.0625,9.40024,0.00159778,-2.92978,9.5149,0.0740921,-2.64551,-0.00605006,-0.0115556,-0.0343557,-45.4229,20.794,4.77017,0.494184,0.45679,0.651917,0.349472
105,3676.56,24,138.0,33.8125,-9.07042,3.51111,1.3549,-8.81521,3.64619,1.74649,-0.0500352,-0.000504874,0.0313208,36.2282,-28.6208,-32.8035,0.0477671,0.586141,-0.273969,-0.760985,36.375,1.45424,9.91708,-0.505684,1.32587,9.87178,-0.195561,-0.00356659,0.0318975,-0.0462363,16.2366,-41.5481,-15.1702,0.682048,-0.663784,0.24876,0.179777,34.0625,9.47329,0.0777032,-3.00668,9.51504,0.134629,-2.61543,-0.0483281,-0.0293849,-0.0204549,-45.6639,20.4214,5.33709,0.4938,0.457052,0.651966,0.349579
105,3676.57,24,138.0,33.8125,-8.94957,3.62572,1.54876,-8.83053,3.63119,1.73144,-0.101951,0.0491519,0.0155338,36.7329,-29.0202,-33.0646,0.0472836,0.586314,-0.273537,-0.761038,36.375,1.52998,9.72857,-0.503699,1.29605,9.85667,-0.134975,-0.0343826,0.00609225,-0.0325323,15.5813,-42.1701,-13.9022,0.682179,-0.663674,0.248665,0.179818,34.0625,9.47058,0.192573,-3.12319,9.5901,0.180002,-2.63111,-0.0391687,0.0159237,-0.00897756,-45.5428,20.2841,4.48668,0.493914,0.456838,0.651852,0.349909
105,3676.58,24,138.0,33.8125,-8.99136,3.43565,1.4718,-8.87676,3.52579,1.71661,-0.0970106,-0.0264625,0.0298693,35.9835,-29.2279,-32.2744,0.0469381,0.586126,-0.27355,-0.761199,36.375,1.37543,9.80383,-0.584186,1.28047,9.84172,-0.210487,-0.0560137,0.0216296,-0.0327412,16.6067,-41.5628,-14.1806,0.682301,-0.663651,0.248403,0.179801,34.0625,9.43846,0.153235,-2.93032,9.51492,0.149717,-2.64575,0.0194832,0.0121553,-0.0127972,-45.419,20.5359,4.62865,0.494035,0.456613,0.651889,0.349964
105,3676.59,24,138.0,33.8125,-9.05785,3.40064,1.74034,-8.92184,3.52613,1.73176,-0.0675827,-0.0138405,0.0440307,35.4871,-28.9535,-32.8,0.0466309,0.58598,-0.27352,-0.761341,36.375,1.14853,9.6168,-0.510247,1.18928,9.73633,-0.25558,-0.0539272,0.0205897,-0.0232649,16.0887,-41.673,-13.9015,0.682405,-0.663611,0.248216,0.179813,34.0625,9.47368,0.15364,-3.00715,9.53005,0.104382,-2.61541,-0.00899481,-0.0286965,0.0206175,-45.5409,20.414,4.91203,0.493956,0.456741,0.651888,0.34991
105,3676.6,24,138.0,33.8125,-8.90883,3.47468,1.66534,-8.92197,3.46577,1.77719,-0.0407128,0.0103138,0.0535173,36.1171,-28.8639,-33.9829,0.0463206,0.585965,-0.273218,-0.76148,36.375,1.2985,9.5405,-0.584724,1.12863,9.66101,-0.255433,-0.0324021,0.0404031,-0.0271215,16.7273,-41.1805,-14.0409,0.682423,-0.663745,0.24788,0.179711,34.0625,9.47368,0.15364,-3.00715,9.53024,0.104438,-2.57001,-0.00903043,0.00157183,-0.032665,-44.7842,20.7621,4.77246,0.493809,0.456756,0.651916,0.350046
105,3676.61,24,138.0,33.8125,-8.98468,3.24797,1.70346,-8.90753,3.42033,1.74708,-0.0327051,-0.0528089,0.0340367,35.8713,-29.4708,-33.3226,0.0462779,0.585661,-0.27334,-0.761673,36.375,1.22267,9.69135,-0.586588,1.09854,9.64596,-0.240183,-0.0420439,0.0392742,-0.0495443,15.5676,-41.2668,-13.9075,0.682576,-0.663641,0.247665,0.179813,34.0625,9.46759,0.0413408,-3.19946,9.48503,0.0438913,-2.59984,0.0207683,-0.0283888,-0.001358,-45.4166,20.7953,5.33752,0.493556,0.457033,0.652025,0.349838
105,3676.62,24,138.0,33.8125,-8.95464,3.2836,1.47287,-8.84877,3.28394,1.70201,0.0171899,-0.0412847,0.0258688,35.7407,-28.8435,-33.5886,0.0464129,0.585457,-0.273304,-0.761834,36.375,1.26089,9.72888,-0.586017,1.08424,9.69116,-0.164402,-0.0482383,0.0163081,-0.0496878,15.961,-41.2809,-14.3276,0.682757,-0.663445,0.247544,0.180016,34.0625,9.43496,0.11623,-3.0459,9.49995,0.134607,-2.63049,0.017993,-0.0333915,-0.0211057,-45.6908,21.3219,4.62679,0.49346,0.456941,0.652187,0.349791
105,3676.63,24,138.0,33.8125,-9.03289,3.28351,1.39472,-8.86346,3.35953,1.67166,0.0179343,-0.0594319,0.00440271,35.9807,-28.8556,-32.5391,0.0466315,0.585189,-0.273434,-0.76198,36.375,1.22421,9.84222,-0.548329,1.09984,9.73635,-0.119027,-0.0318199,-0.00987586,-0.015821,16.0934,-41.6729,-14.1835,0.682837,-0.663335,0.247544,0.180116,34.0625,9.50651,0.11672,-3.16094,9.52993,0.104345,-2.64568,0.0145096,0.0402894,0.0158121,-45.4096,20.5379,5.47968,0.493427,0.457163,0.652106,0.349699
105,3676.64,24,138.0,33.8125,-8.88174,3.47171,1.35786,-8.90867,3.4353,1.59604,0.00438681,-0.0181019,0.0256143,35.7393,-29.4631,-32.4037,0.0466279,0.585037,-0.273893,-0.761932,36.375,1.22526,9.80483,-0.509468,1.13077,9.84189,-0.0886822,-0.0484101,-0.00695585,-0.0367241,16.2117,-41.2906,-13.9028,0.682898,-0.663314,0.247344,0.180238,34.0625,9.36231,0.116062,-2.96946,9.54504,0.195117,-2.63092,-0.0220459,-0.00749783,-0.0138786,-45.6756,20.6778,4.76942,0.493365,0.457095,0.652108,0.349871
105,3676.65,24,138.0,33.8125,-9.03263,3.32145,1.39459,-8.84863,3.44992,1.55064,0.0735243,-0.078866,0.0220489,35.9824,-28.9798,-32.5384,0.0468876,0.58469,-0.274289,-0.76204,36.375,1.41136,9.84085,-0.661097,1.17554,9.85698,-0.164472,-0.0807424,0.00860949,-0.0390597,16.4772,-41.8163,-13.898,0.683023,-0.663283,0.247018,0.180328,34.0625,9.35991,0.0787358,-3.04644,9.575,0.134605,-2.64602,0.0192075,0.0285994,0.00311102,-45.5448,20.1542,4.06133,0.493861,0.45652,0.65203,0.350068
105,3676.66,24,138.0,33.8125,-8.98976,3.47392,1.51018,-8.83256,3.44992,1.67143,0.0613949,-0.103312,0.0227725,34.9908,-28.9271,-32.9304,0.0471784,0.584222,-0.274629,-0.762258,36.375,1.4125,9.84111,-0.622356,1.20525,9.81166,-0.179895,-0.043581,0.000576472,-0.00815932,16.4686,-41.5583,-13.6175,0.682994,-0.663414,0.246799,0.180254,34.0625,9.47089,0.0403771,-3.08365,9.51485,0.134573,-2.66084,0.0305263,-0.015085,-0.0153868,-45.8068,20.5539,4.20177,0.494098,0.456063,0.652158,0.350091
105,3676.67,24,138.0,33.8125,-8.99404,3.43498,1.39479,-8.83281,3.48007,1.61096,0.0339785,-0.041192,0.0185706,35.7358,-28.9668,-32.8004,0.0472803,0.584028,-0.27481,-0.762335,36.375,1.30034,9.80433,-0.546827,1.1746,9.7514,-0.21011,-0.0504286,-0.00713714,-0.029248,15.4418,-41.0038,-14.3328,0.683252,-0.663037,0.246935,0.180474,34.0625,9.39863,0.116146,-3.00768,9.54514,0.104404,-2.60036,-0.00294665,-0.0235404,-0.00688911,-45.6776,21.0658,5.33629,0.493758,0.456415,0.652219,0.35
105,3676.68,24,138.0,33.8125,-8.99377,3.47292,1.39467,-8.83255,3.51027,1.6109,0.0200169,-0.0746941,-0.00441876,35.6077,-29.0836,-32.1433,0.0474509,0.58372,-0.275092,-0.762459,36.375,1.22506,9.72952,-0.509227,1.1892,9.76658,-0.30083,-0.0139964,-0.0320063,-0.0491284,16.3256,-40.7794,-13.4819,0.683023,-0.663301,0.246746,0.180632,34.0625,9.44097,0.000396986,-2.81358,9.51497,0.119485,-2.63052,0.0365511,-0.0143432,-0.00276022,-45.5409,20.414,4.91203,0.49378,0.456335,0.652322,0.34988
105,3676.69,24,138.0,33.8125,-9.07069,3.47317,1.35503,-8.89245,3.58619,1.58059,0.0187953,-0.0504189,-0.00281547,35.6115,-28.9602,-32.8002,0.0475446,0.583539,-0.275149,-0.762571,36.375,1.22466,9.57891,-0.508744,1.12847,9.70639,-0.330863,-0.00341955,0.0420812,-0.0607982,16.4794,-41.0417,-14.7484,0.683035,-0.6633,0.246617,0.180765,34.0625,9.47549,0.0770608,-2.92947,9.53022,0.0439382,-2.56981,-0.00822389,-0.0000552528,-0.0303149,-45.4307,21.3102,5.05321,0.493531,0.456526,0.652335,0.349958
105,3676.7,24,138.0,33.8125,-9.02755,3.47422,1.50962,-8.86155,3.61623,1.6409,0.0290607,-0.0341695,-0.0263892,36.1121,-28.7392,-33.59,0.047697,0.583488,-0.274831,-0.762715,36.375,1.18903,9.65485,-0.432195,1.09883,9.69124,-0.240053,-0.0247582,0.0232033,-0.0618071,15.9587,-41.281,-14.1867,0.683089,-0.663262,0.246445,0.180934,34.0625,9.55093,0.190492,-2.9294,9.54521,0.134673,-2.58532,0.0682346,0.0163172,0.00627582,-45.5377,20.4147,5.19571,0.493636,0.456487,0.652391,0.349758
105,3676.71,24,138.0,33.8125,-9.06347,3.36136,1.58644,-8.84787,3.57071,1.52018,0.00366277,-0.0184439,-0.0161861,35.7408,-29.0914,-33.1934,0.0477328,0.583469,-0.274767,-0.762751,36.375,1.30213,9.61658,-0.468742,1.12899,9.64581,-0.179916,-0.0117917,-0.0422724,-0.0654951,16.0809,-41.1568,-13.9045,0.682964,-0.66333,0.246376,0.181249,34.0625,9.58576,0.11496,-3.00576,9.50029,0.22545,-2.5551,0.0543093,-0.0197008,0.0106278,-45.1729,21.039,4.77077,0.493629,0.456501,0.652482,0.349578
105,3676.72,24,138.0,33.8125,-8.81392,3.50705,1.12783,-8.78746,3.5552,1.55035,-0.0204159,-0.041895,-0.00221682,35.4909,-28.8301,-33.4569,0.0476636,0.583361,-0.274514,-0.762929,36.375,1.34035,9.65412,-0.468172,1.12947,9.72127,-0.1797,-0.0177904,-0.00611186,-0.0350375,15.9513,-41.4103,-13.622,0.682882,-0.663446,0.24623,0.181335,34.0625,9.39883,0.154115,-3.00792,9.51526,0.240559,-2.57037,0.014172,0.0348019,-0.0385942,-45.4322,21.3098,4.91137,0.493554,0.456446,0.65248,0.349758
105,3676.73,24,138.0,33.8125,-8.80536,3.39558,1.39775,-8.78772,3.52499,1.55042,-0.0000334469,-0.0246238,0.00445612,35.7374,-28.5951,-33.5901,0.0476119,0.583326,-0.27421,-0.763068,36.375,1.15092,9.65497,-0.432886,1.09964,9.69105,-0.104045,0.00490832,0.0332697,-0.0341913,15.9489,-40.6358,-14.1904,0.682932,-0.663433,0.24613,0.181329,34.0625,9.50981,0.115756,-3.04513,9.51491,0.134592,-2.6457,0.00213424,0.00369185,-0.0255261,-45.9342,20.6899,4.48483,0.493677,0.456129,0.652524,0.349916
105,3676.74,24,138.0,33.8125,-9.14466,3.51202,1.39227,-8.80241,3.52514,1.59573,-0.0129017,-0.0319484,-0.0101536,35.9947,-29.7252,-32.7964,0.0476266,0.583187,-0.274474,-0.763078,36.375,1.22963,9.73056,-0.354263,1.10111,9.76628,0.0624032,-0.0425458,-0.0229281,-0.0195457,16.3424,-41.4244,-13.9012,0.682996,-0.663398,0.245997,0.181399,34.0625,9.43106,0.00328804,-3.16101,9.54485,0.195061,-2.67632,0.00890427,-0.0263481,-0.00215782,-45.2944,21.0467,5.33766,0.493331,0.456473,0.652623,0.349772
105,3676.75,24,138.0,33.8125,-8.95197,3.28427,1.54988,-8.86219,3.55581,1.62593,-0.0249443,-0.0406965,0.0136391,35.3533,-28.5737,-32.2771,0.0475298,0.583019,-0.274455,-0.76322,36.375,1.0724,9.65469,-0.511749,1.13095,9.84184,-0.0584582,-0.0240028,0.0210696,-0.0408869,15.9578,-40.7646,-14.6126,0.683203,-0.663147,0.245997,0.181537,34.0625,9.54534,-0.0360343,-3.08241,9.54508,0.134636,-2.61559,0.0316898,-0.0336012,0.00334829,-45.4139,20.1485,4.34546,0.49354,0.456138,0.652709,0.349754
105,3676.76,24,138.0,33.8125,-9.14546,3.39821,1.39265,-8.80216,3.49499,1.6562,-0.00926789,0.0149467,0.0198181,35.36,-28.8226,-32.6693,0.0474154,0.583037,-0.274531,-0.763186,36.375,1.20969,9.53789,-1.01225,1.12885,9.75165,-0.315622,0.042423,0.00895761,-0.0428785,16.3537,-41.5532,-14.4644,0.683016,-0.663313,0.246012,0.181612,34.0625,9.40213,0.153151,-2.89211,9.48491,0.0741041,-2.63021,-0.0482796,-0.00316423,-0.00130316,-45.4139,20.1485,4.34546,0.49366,0.455942,0.652604,0.350036
105,3676.77,24,138.0,33.8125,-9.06801,3.47384,1.43204,-8.87777,3.45025,1.67148,-0.0186188,0.0273569,0.0209322,35.9873,-29.1044,-32.9313,0.0472973,0.583103,-0.27455,-0.763135,36.375,1.24438,9.53699,-1.12779,1.11205,9.63117,-0.482109,-0.0120247,0.067227,-0.0155243,16.335,-40.7792,-14.0459,0.682998,-0.663445,0.24582,0.181456,34.0625,9.32798,0.0773667,-2.85381,9.5,0.059001,-2.61511,-0.00653223,0.0497917,-0.000696668,-45.674,20.6782,4.91126,0.49377,0.455923,0.652467,0.35016
105,3676.78,24,138.0,33.8125,-9.18486,3.36022,1.3537,-8.89296,3.52578,1.58072,-0.0511008,0.0367226,0.0174679,35.8663,-29.0982,-33.3248,0.0470181,0.583253,-0.274363,-0.763106,36.375,1.34627,9.73072,-0.274709,1.17146,9.54052,-0.512956,0.0416986,0.00269861,-0.0209937,16.4677,-41.042,-14.0435,0.682706,-0.663733,0.24587,0.181434,34.0625,9.43736,0.153556,-2.96893,9.48489,0.195085,-2.64574,-0.0218733,-0.00329606,-0.0012349,-45.4299,21.0514,4.62802,0.493677,0.455974,0.652449,0.350258
105,3676.79,24,138.0,33.8125,-8.9911,3.47359,1.47168,-8.93742,3.49601,1.70164,0.0399324,0.00904394,0.0169277,36.4742,-28.7577,-32.2783,0.0471112,0.583242,-0.27453,-0.763048,36.375,1.09289,9.6217,0.185706,1.17657,9.7207,0.152491,0.00770876,0.0237305,-0.0465826,16.0898,-41.2857,-14.3267,0.682821,-0.663679,0.245712,0.181413,34.0625,9.50761,0.116398,-3.12233,9.48508,0.210266,-2.60038,-0.000819834,-0.0373687,-0.00149903,-45.5409,20.414,4.91203,0.493519,0.45604,0.652536,0.350234
105,3676.8,24,138.0,33.8125,-9.0345,3.4346,1.31721,-8.87777,3.45025,1.67148,0.00989441,0.00701503,0.0231547,35.3606,-28.9466,-32.5373,0.0471038,0.583206,-0.274759,-0.762994,36.375,1.41439,9.69101,-0.544392,1.10107,9.66048,0.167884,0.0168314,0.0220556,-0.0442914,15.9591,-41.1519,-14.3284,0.682928,-0.663611,0.245598,0.181416,34.0625,9.54704,0.0775502,-3.04451,9.54511,0.225385,-2.61588,-0.0077073,-0.0142319,0.0105159,-45.4084,20.4087,5.338,0.493279,0.456326,0.65255,0.350171
105,3676.81,24,138.0,33.8125,-8.84315,3.39587,1.39718,-8.81774,3.4347,1.65635,-0.023454,-0.00267925,-0.00349733,35.8696,-29.3466,-33.3233,0.0471053,0.58319,-0.274697,-0.763028,36.375,1.44669,9.65195,-0.737285,1.29419,9.70595,-0.286527,0.0787852,-0.00540616,-0.0563029,16.093,-41.802,-14.0418,0.682594,-0.663945,0.245606,0.181438,34.0625,9.47388,0.191609,-3.00738,9.52995,0.195095,-2.64597,-0.016221,0.0135589,-0.0018497,-45.4162,20.407,4.62881,0.493356,0.456202,0.652487,0.350343
105,3676.82,24,138.0,33.8125,-8.88655,3.35688,1.24271,-8.69705,3.43384,1.67133,-0.0557859,0.023129,0.0127899,35.7351,-28.3469,-33.7228,0.0468434,0.583332,-0.274059,-0.763165,36.375,1.44957,9.87838,-0.660527,1.33816,9.73635,-0.513393,0.0472216,0.00423212,-0.050636,16.3451,-41.2952,-14.1839,0.682332,-0.664193,0.245636,0.181479,34.0625,9.43315,0.19281,-3.12357,9.50009,0.164894,-2.60031,0.0267969,0.000588575,-0.00658455,-45.6908,21.3219,4.62679,0.493385,0.45612,0.652537,0.350315
105,3676.83,24,138.0,33.8125,-8.99163,3.39771,1.47193,-8.72731,3.47931,1.61086,-0.00335689,0.0570214,0.0254315,35.6104,-28.96,-32.669,0.0466541,0.583503,-0.274226,-0.762986,36.375,1.26566,9.80523,-0.431295,1.33952,9.76626,-0.316851,0.0286273,0.0166758,-0.0584224,15.9743,-41.5387,-14.8901,0.682368,-0.664068,0.24578,0.181604,34.0625,9.57956,0.192825,-3.23784,9.53028,0.240563,-2.57045,0.017882,-0.0120501,-0.00278785,-45.0381,20.7752,4.91338,0.493255,0.456221,0.652584,0.350282
105,3676.84,24,138.0,33.8125,-9.05838,3.32476,1.74058,-8.83193,3.46507,1.7318,-0.0914837,0.0382518,0.0378798,35.6108,-28.5882,-33.3274,0.0462228,0.583628,-0.273768,-0.763081,36.375,1.07738,9.80634,-0.357268,1.17532,9.75123,-0.0892144,0.0303458,0.0293455,-0.0739566,15.7018,-41.0133,-14.472,0.682431,-0.663989,0.245725,0.181732,34.0625,9.50891,0.154046,-3.08397,9.48503,0.255622,-2.61566,0.00767943,0.015124,-0.0033476,-45.1619,20.5235,4.77141,0.49328,0.456157,0.652566,0.350363
105,3676.85,24,138.0,33.8125,-8.95438,3.5109,1.43362,-8.86282,3.45012,1.65636,-0.0482351,0.00510696,0.0214983,35.8535,-28.4767,-32.8036,0.0460416,0.583641,-0.273487,-0.763183,36.375,1.03344,9.76751,-0.551542,0.995653,9.79678,0.00267789,0.0370436,0.0639455,-0.0803379,16.5922,-40.9178,-13.9023,0.68227,-0.664377,0.245172,0.181662,34.0625,9.47348,0.115672,-3.00691,9.52996,0.225345,-2.64607,0.0169291,-0.0152577,-0.0020327,-45.6577,19.9049,4.91221,0.493318,0.456024,0.652618,0.350384
105,3676.86,24,138.0,33.8125,-9.1058,3.28477,1.4706,-8.90778,3.46557,1.67147,-0.0444933,0.00466137,0.00314963,35.7291,-28.4701,-32.8034,0.0459397,0.583672,-0.273199,-0.763269,36.375,1.1455,9.76664,-0.626951,1.01015,9.79688,-0.0880849,0.0102012,0.0937175,-0.0243056,16.5992,-40.9176,-14.3253,0.68235,-0.664482,0.244845,0.181419,34.0625,9.50671,0.154688,-3.16117,9.5001,0.195144,-2.60041,0.0102494,-0.0109645,-0.00279775,-45.6779,20.9363,5.05278,0.493172,0.456151,0.652662,0.350344
105,3676.87,24,138.0,33.8125,-9.06561,3.43657,1.50917,-8.8779,3.38988,1.71691,-0.0469235,0.0456063,-0.0264774,35.6208,-29.0854,-33.7181,0.0459275,0.583877,-0.272907,-0.763216,36.375,1.02991,9.72908,-0.667644,1.01036,9.8724,-0.133205,0.0537708,0.0792169,-0.0659291,16.5926,-40.7887,-14.044,0.682182,-0.664849,0.244416,0.181288,34.0625,9.62508,0.266277,-2.9677,9.53014,0.180026,-2.60052,0.0340753,-0.0378764,-0.00771386,-45.5319,19.7686,4.48732,0.493346,0.455793,0.652761,0.350379
105,3676.88,24,138.0,33.8125,-9.13503,3.36295,1.70082,-8.96782,3.42076,1.74714,-0.075792,0.0275783,-0.0249297,35.6142,-28.8366,-33.3259,0.0458557,0.584014,-0.272516,-0.763257,36.375,1.18973,9.91843,-0.433039,0.995694,9.90258,-0.102803,0.0282602,0.0325008,-0.0688998,16.2168,-41.9359,-13.6171,0.681992,-0.665161,0.244057,0.181339,34.0625,9.47538,0.267225,-2.96924,9.54512,0.285885,-2.61608,-0.043119,0.000452488,-0.0241001,-45.4217,20.6647,4.6285,0.493212,0.455752,0.652734,0.350671
105,3676.89,24,138.0,33.8125,-9.10313,3.4748,1.50848,-8.96795,3.3604,1.79257,-0.0666573,0.0195359,-0.0192208,35.4899,-29.0779,-32.9305,0.045861,0.584062,-0.27241,-0.763257,36.375,1.18038,9.84105,-0.742724,1.05539,9.85721,-0.133521,0.0134054,0.00934244,-0.0616898,16.2156,-41.5487,-13.9013,0.681917,-0.665265,0.243888,0.181469,34.0625,9.43296,0.154841,-3.12334,9.51507,0.255629,-2.61582,0.03681,-0.00767943,0.01227,-45.6768,20.2891,3.91887,0.493621,0.455224,0.652771,0.350713
105,3676.9,24,138.0,33.8125,-9.09377,3.47715,1.77803,-8.93717,3.43569,1.79238,-0.0599901,0.00793514,-0.0495897,35.7364,-28.8429,-33.0637,0.0459536,0.58413,-0.272085,-0.763315,36.375,1.10271,9.72806,-0.782485,1.10042,9.84202,-0.133836,0.013164,0.0378682,-0.0891522,16.5922,-40.9178,-13.9023,0.68182,-0.665489,0.243482,0.181554,34.0625,9.43645,0.191846,-3.00776,9.54514,0.33126,-2.61622,-0.0123635,-0.000231886,0.0122104,-45.5327,20.0274,4.91251,0.493581,0.455265,0.652717,0.350817
105,3676.91,24,138.0,33.8125,-9.25295,3.4763,1.54472,-8.95161,3.5113,1.79223,-0.0414502,0.0442849,-0.0473385,35.6176,-29.0849,-33.3244,0.0460062,0.584323,-0.27192,-0.763223,36.375,1.2593,9.99194,-0.664343,1.05456,9.79694,-0.209253,0.0141443,0.0253064,-0.0779341,16.8619,-40.7979,-14.7471,0.681795,-0.665486,0.243386,0.181789,34.0625,9.46908,0.116957,-3.16132,9.56002,0.300976,-2.64648,0.0650766,0.0223357,0.0252297,-45.4053,19.8915,4.62945,0.493915,0.454991,0.652706,0.350723
105,3676.92,24,138.0,33.8125,-9.03317,3.43493,1.35572,-8.93704,3.49605,1.74694,-0.0582419,0.0261273,-0.0280897,35.8641,-29.0979,-33.0624,0.045951,0.584428,-0.271791,-0.763192,36.375,1.25651,9.80315,-0.741222,1.05402,9.81219,-0.314994,0.0175952,0.0190663,-0.0564799,16.9792,-41.5775,-13.3319,0.681466,-0.665974,0.242981,0.181777,34.0625,9.47399,0.00144479,-2.96761,9.53,0.149739,-2.63069,-0.00638313,0.000357847,0.0114439,-45.6818,21.1944,5.19429,0.493671,0.455365,0.652662,0.350662
105,3676.93,24,138.0,33.8125,-9.06454,3.39896,1.54781,-8.9226,3.43552,1.73196,-0.0148834,0.0217933,-0.0310057,36.6125,-29.386,-32.9309,0.0460521,0.58451,-0.271877,-0.763093,36.375,1.18361,9.76652,-0.626261,1.0694,9.75161,-0.194362,0.00916821,0.0324882,-0.0354373,16.4783,-41.429,-14.3232,0.681521,-0.665929,0.24294,0.181789,34.0625,9.55324,-0.000314333,-2.81243,9.51502,0.0590042,-2.61519,0.00589786,-0.015477,0.0152665,-45.653,19.9059,5.33772,0.493555,0.455568,0.652699,0.350494
105,3676.94,24,138.0,33.8125,-9.02648,3.43661,1.54825,-8.87689,3.46543,1.76205,-0.0198216,0.0473049,-0.0126991,35.6131,-28.8364,-33.1947,0.0460297,0.584674,-0.271818,-0.762989,36.375,1.14614,9.57863,-0.587608,1.08464,9.79688,-0.209435,0.0481025,0.0468326,-0.0491584,17.129,-41.5817,-14.5998,0.681407,-0.66611,0.242805,0.181738,34.0625,9.43956,0.152914,-2.89172,9.52998,0.0892388,-2.6305,0.000099088,0.0178331,-0.00334214,-45.5553,20.7993,4.34421,0.493735,0.455348,0.652667,0.350586
105,3676.95,24,138.0,33.8125,-8.9525,3.39775,1.511,-8.87689,3.45034,1.77718,-0.047796,0.0300368,-0.0144575,35.9895,-28.8568,-33.589,0.0459584,0.584792,-0.271523,-0.763008,36.375,1.10738,9.76676,-0.627642,1.02453,9.70631,-0.103547,0.0311337,-0.0132308,-0.04169,16.73,-41.0514,-14.3236,0.681321,-0.666136,0.242866,0.18188,34.0625,9.39443,0.1554,-3.16233,9.45496,0.179991,-2.61526,0.026554,-0.00963313,0.0224653,-45.0455,20.903,4.48771,0.493787,0.455358,0.652689,0.350458
105,3676.96,24,138.0,33.8125,-9.02327,3.3238,1.66414,-8.86119,3.49556,1.80727,-0.00179017,0.0107772,-0.0144784,35.3683,-29.1956,-33.0608,0.046061,0.584769,-0.271764,-0.762934,36.375,1.26909,9.806,-0.315073,1.02462,9.70629,-0.0884353,0.0426647,-0.00818521,-0.011391,17.1338,-42.3561,-14.1724,0.681139,-0.666338,0.24287,0.181817,34.0625,9.70103,0.265481,-2.92833,9.53035,0.285956,-2.55546,0.00174613,0.0161398,-0.00414142,-45.5502,20.9299,5.05323,0.493649,0.455513,0.652643,0.350536
105,3676.97,24,138.0,33.8125,-9.05919,3.40031,1.70183,-8.8161,3.46504,1.82239,-0.0224319,0.0317974,0.00264257,35.4832,-28.5811,-32.9335,0.0459941,0.584842,-0.271709,-0.762901,36.375,1.15007,9.76767,-0.471988,0.979136,9.70647,-0.148611,0.0603382,-0.0333307,-0.0212613,16.4693,-41.3001,-13.901,0.680897,-0.666501,0.243031,0.181912,34.0625,9.51001,0.153725,-3.04536,9.59032,0.285932,-2.58605,-0.0296155,-0.00836445,0.0286312,-45.3971,20.0227,5.62215,0.49333,0.455985,0.652589,0.350471
105,3676.98,24,138.0,33.8125,-8.94823,3.4367,1.62639,-8.81585,3.49525,1.82232,-0.0438159,0.0122535,0.00507477,35.6091,-28.2161,-33.7234,0.0458161,0.584902,-0.271207,-0.763045,36.375,1.2267,9.91805,-0.471089,0.979993,9.82719,-0.133153,0.0541168,-0.00954101,-0.0569846,16.8663,-41.7014,-14.178,0.680676,-0.666704,0.242984,0.182058,34.0625,9.43307,-0.035323,-3.08357,9.50009,0.180019,-2.60036,0.018231,0.024589,0.00464632,-45.4084,20.4087,5.338,0.493263,0.456142,0.652564,0.350408
105,3676.99,24,138.0,33.8125,-8.90883,3.47468,1.66534,-8.8313,3.49532,1.77704,0.00353725,0.0568425,0.014653,35.617,-28.9609,-33.4564,0.045722,0.585053,-0.271337,-0.762888,36.375,1.11464,9.91892,-0.39568,0.980089,9.84229,-0.133109,0.0493388,0.00193503,-0.057312,16.6067,-41.5628,-14.1806,0.680531,-0.666825,0.242951,0.182197,34.0625,9.43617,-0.0742553,-2.96753,9.51503,0.119504,-2.61538,-0.0176065,-0.0316302,0.021355,-45.2749,19.7562,4.63007,0.49333,0.456083,0.652517,0.350478
105,3677.0,24,138.0,33.8125,-9.023,3.36174,1.66401,-8.8308,3.46519,1.86771,-0.0601652,0.0413948,0.0108156,36.3553,-28.5038,-33.3294,0.0455133,0.585176,-0.270941,-0.762947,36.375,1.1459,9.91725,-0.627434,1.07072,9.90245,-0.133482,0.0340061,0.0143718,-0.0299035,16.8518,-41.0563,-13.8997,0.680405,-0.667012,0.242841,0.182133,34.0625,9.43665,0.229815,-3.008,9.48474,0.119423,-2.67576,-0.00220659,-0.00367417,0.0271719,-45.6811,20.9356,4.7691,0.493346,0.45618,0.652476,0.350408
105,3677.01,24,138.0,33.8125,-8.98842,3.2849,1.58782,-8.8156,3.43492,1.91306,-0.076138,-0.0272289,-0.0108271,35.487,-28.7056,-33.1952,0.0454586,0.585026,-0.270683,-0.763158,36.375,1.18456,9.69147,-0.587279,1.10043,9.87224,-0.163974,0.048697,-0.00935519,-0.0653087,16.4927,-42.074,-14.6015,0.680355,-0.666961,0.24296,0.182347,34.0625,9.54633,0.153809,-3.08358,9.48476,0.195048,-2.67601,-0.00762492,0.0142719,0.0162976,-45.4217,20.6647,4.6285,0.493432,0.456139,0.652408,0.350467
105,3677.02,24,138.0,33.8125,-8.91311,3.43574,1.54995,-8.86119,3.43521,1.8678,-0.0584259,0.0271709,-0.020538,35.6127,-29.2082,-32.5363,0.0454195,0.585057,-0.270867,-0.763071,36.375,1.07394,9.80556,-0.473491,1.03923,9.7517,-0.209292,0.0562661,0.0117861,-0.0572296,16.7108,-40.4064,-13.7634,0.680112,-0.667253,0.242815,0.18238,34.0625,9.54413,0.154451,-3.16079,9.5598,0.164796,-2.69144,-0.0110265,0.0187365,-0.0301461,-45.033,20.9058,5.62241,0.49302,0.456528,0.652435,0.350488
105,3677.03,24,138.0,33.8125,-9.00589,3.32816,2.16472,-8.84561,3.46533,1.89792,-0.0636543,0.00519969,0.00458796,35.7201,-27.7251,-32.9392,0.0452752,0.585065,-0.27028,-0.763281,36.375,1.26059,9.61592,-0.585656,1.06895,9.75172,-0.269922,0.0312706,0.00496056,-0.0481843,16.8663,-41.7014,-14.178,0.679989,-0.667364,0.242788,0.182466,34.0625,9.476,-0.0371663,-2.89017,9.57513,0.149767,-2.6158,-0.00912301,0.0215311,0.00690887,-45.1514,20.3963,5.48075,0.492837,0.456838,0.652366,0.350471
105,3677.04,24,138.0,33.8125,-8.99056,3.36011,1.51056,-8.84599,3.42002,1.89802,-0.048916,-0.0291586,-0.037273,35.9845,-28.7322,-33.1961,0.045405,0.584945,-0.270034,-0.763453,36.375,1.26307,9.69175,-0.508415,0.993643,9.72168,-0.254442,0.0489794,0.0261721,-0.111406,16.9967,-41.9643,-14.0346,0.679736,-0.667694,0.242433,0.182673,34.0625,9.40044,0.0395664,-2.93001,9.54497,0.179973,-2.64601,-0.0348,-0.00772781,-0.00288596,-45.4143,20.5369,5.05417,0.492659,0.456985,0.652331,0.350592
105,3677.05,24,138.0,33.8125,-9.06213,3.3617,1.62494,-8.78559,3.40451,1.9282,-0.0547156,-0.0101955,-0.0133398,35.8585,-28.8493,-32.8014,0.0454067,0.584836,-0.270025,-0.763539,36.375,0.9186,9.5796,-0.553012,1.00867,9.6763,-0.209327,0.0784478,0.00704635,-0.0974658,16.9958,-41.4479,-14.4605,0.679479,-0.66792,0.242351,0.182913,34.0625,9.46999,0.0786669,-3.12249,9.51504,0.149754,-2.61548,-0.0162771,-0.0177448,0.0317293,-45.4272,20.9225,4.62818,0.49267,0.457072,0.652266,0.350585
105,3677.06,24,138.0,33.8125,-8.91151,3.47401,1.58833,-8.86094,3.38997,1.94341,-0.0193668,0.0188308,-0.0144479,35.8608,-29.0975,-32.6687,0.0455039,0.584814,-0.270293,-0.763456,36.375,1.1452,9.65368,-0.62659,1.00896,9.7367,-0.224266,0.0383488,-0.00495579,-0.113506,16.8436,-40.6693,-13.761,0.67923,-0.668191,0.242069,0.18322,34.0625,9.39993,0.153793,-2.96931,9.4999,0.149714,-2.64567,-0.00644194,0.0247673,0.0140359,-45.8088,20.9419,4.76864,0.492787,0.457029,0.652163,0.350668
105,3677.07,24,138.0,33.8125,-9.05972,3.51379,1.66295,-8.84612,3.42001,1.88292,0.0234835,-0.0187604,-0.0100882,35.7364,-29.0908,-32.6684,0.045733,0.584648,-0.270712,-0.76342,36.375,1.06698,9.76636,-0.705815,1.00896,9.7367,-0.224266,0.0570922,0.00839804,-0.0871897,16.7207,-41.0516,-13.7596,0.678985,-0.668466,0.241877,0.18338,34.0625,9.39883,0.154115,-3.00792,9.46992,0.179975,-2.63047,0.00839983,0.0088679,0.0202278,-45.7971,20.1676,4.34409,0.493141,0.456675,0.652072,0.350802
105,3677.08,24,138.0,33.8125,-9.09724,3.36266,1.70139,-8.84549,3.46534,1.91302,-0.0181146,0.00108912,-0.0216891,36.7313,-29.1439,-32.6701,0.0458092,0.5846,-0.270831,-0.76341,36.375,1.10042,9.72755,-0.859967,1.02413,9.82732,-0.299657,0.0606652,-0.0121215,-0.0859206,16.8502,-40.7982,-14.0422,0.678728,-0.668665,0.241849,0.183644,34.0625,9.70134,0.113285,-2.88879,9.45465,0.179898,-2.69093,0.0189237,0.0486281,-0.0226973,-46.0608,20.567,4.3427,0.493508,0.456147,0.65205,0.351013
105,3677.09,24,138.0,33.8125,-8.91258,3.51161,1.5497,-8.86043,3.49564,1.89787,-0.00532165,-0.000727467,-0.0349502,36.2454,-29.2429,-33.8496,0.0459808,0.58458,-0.270758,-0.763441,36.375,1.3395,9.76682,-0.507275,1.0542,9.79703,-0.269701,0.0508855,-0.0520756,-0.0614499,17.2379,-41.1997,-13.7552,0.678389,-0.668941,0.241863,0.183871,34.0625,9.39674,-0.0354071,-3.04535,9.51493,0.195092,-2.6459,-0.0274353,0.00910202,-0.000345532,-45.8037,21.0725,5.47767,0.49318,0.45655,0.652001,0.351042
105,3677.1,24,138.0,33.8125,-8.91258,3.51161,1.5497,-8.86018,3.48058,1.94321,-0.0371973,-0.0107867,-0.0156369,35.7352,-28.5948,-33.3276,0.0460093,0.584505,-0.270531,-0.763577,36.375,1.18476,9.76678,-0.58752,1.09951,9.82711,-0.269888,0.00733402,0.0176287,-0.065918,16.7371,-41.8257,-14.0371,0.678411,-0.668927,0.241754,0.183984,34.0625,9.51162,0.0391763,-2.96746,9.53006,0.119507,-2.61546,0.0134716,0.00929133,0.00212712,-45.669,20.8087,5.62028,0.49294,0.456897,0.652021,0.350891
105,3677.11,24,138.0,33.8125,-8.94769,3.51258,1.62615,-8.86005,3.54094,1.89777,-0.0217513,-0.0242506,-0.0284038,35.9951,-29.3534,-33.4548,0.0461249,0.584366,-0.270616,-0.763646,36.375,1.22078,9.84145,-0.664552,1.09953,9.87245,-0.315094,0.0321545,-0.0215425,-0.00221722,16.8636,-41.8305,-13.8952,0.678296,-0.668973,0.241961,0.18397,34.0625,9.38864,-0.109096,-3.3151,9.55977,0.0740462,-2.69115,-0.00208387,0.00252462,0.00123498,-45.2947,20.9172,5.05415,0.492821,0.457062,0.652019,0.350847
105,3677.12,24,138.0,33.8125,-8.8681,3.513,1.7428,-8.84548,3.54078,1.83735,-0.0597134,-0.0162172,-0.0461878,35.7268,-27.9739,-33.3314,0.0461251,0.58438,-0.269956,-0.76387,36.375,1.21372,9.76458,-0.896755,1.08439,9.8574,-0.315046,0.039953,-0.00663167,-0.0426067,16.7167,-40.7935,-13.7611,0.678139,-0.669096,0.242002,0.184045,34.0625,9.47447,0.305515,-3.00808,9.5148,0.164805,-2.67607,-0.00273479,-0.0184822,0.00970139,-45.5522,20.8,4.62788,0.492836,0.457009,0.652049,0.350838
105,3677.13,24,138.0,33.8125,-9.16694,3.44046,1.85403,-8.84485,3.55594,1.89772,-0.0528727,-0.000726635,-0.0648171,36.1111,-28.987,-33.0635,0.046217,0.584398,-0.269795,-0.763907,36.375,1.14102,9.80325,-0.782035,1.06908,9.85749,-0.360291,0.046081,0.0104036,-0.0343745,17.2399,-41.3287,-13.7545,0.677907,-0.669374,0.241925,0.183993,34.0625,9.47168,0.192251,-3.08458,9.53054,0.270887,-2.51,0.0000392251,0.0118489,0.0415027,-45.5424,20.4137,4.77019,0.492989,0.457033,0.651875,0.350915
105,3677.14,24,138.0,33.8125,-9.02381,3.43728,1.62526,-8.89032,3.51097,1.91297,-0.0517015,-0.0265835,-0.0631298,36.4846,-28.6351,-33.7226,0.0463688,0.584355,-0.26927,-0.764116,36.375,1.10644,9.8418,-0.666624,1.09953,9.85734,-0.300025,0.0313723,-0.0046865,-0.0562595,16.8522,-40.9272,-14.0414,0.677816,-0.669411,0.241966,0.184139,34.0625,9.50781,0.154367,-3.12257,9.54532,0.316191,-2.57077,0.00375028,-0.00460954,0.0350562,-45.669,20.2908,4.62806,0.493147,0.456951,0.651773,0.35099
105,3677.15,24,138.0,33.8125,-9.09591,3.55235,1.70077,-8.87562,3.52591,1.85252,-0.0117576,-0.0530425,-0.0475859,35.7285,-28.346,-32.9354,0.0465878,0.584174,-0.269124,-0.764292,36.375,1.14923,9.88037,-0.511091,1.08467,9.87245,-0.284779,0.0369932,0.0171511,-0.0431351,17.2243,-41.0709,-13.051,0.677509,-0.669876,0.241637,0.184009,34.0625,9.65971,0.152776,-3.04382,9.54524,0.255672,-2.58571,0.0052547,0.0178204,0.0116383,-46.0573,20.6973,4.90989,0.493227,0.45691,0.651694,0.351076
105,3677.16,24,138.0,33.8125,-9.24814,3.40177,1.69899,-8.90476,3.5715,1.92795,-0.0325788,-0.0203072,-0.0300891,35.608,-28.4639,-33.1969,0.0466321,0.584083,-0.268974,-0.764412,36.375,1.15723,9.88219,-0.239905,0.949742,9.85753,-0.193332,0.0441126,0.0456337,-0.0681264,17.3651,-40.9463,-13.8968,0.677368,-0.670134,0.241331,0.18399,34.0625,9.66002,0.000580488,-3.00428,9.59028,0.149807,-2.58561,-0.0120183,0.00889398,0.0296271,-45.4143,20.5369,5.05417,0.493199,0.457116,0.651568,0.351082
105,3677.17,24,138.0,33.8125,-8.97933,3.43867,1.81836,-8.87512,3.49579,1.94319,-0.03823,-0.0214327,-0.036884,36.4797,-28.5105,-33.3296,0.0467256,0.584005,-0.268668,-0.764573,36.375,1.00135,9.88189,-0.358891,0.966331,9.90248,0.0182744,0.0468645,-0.00646899,-0.0142486,17.1173,-41.582,-13.8949,0.677302,-0.670201,0.241375,0.183931,34.0625,9.35912,-0.0731386,-3.0455,9.56021,0.0590512,-2.58516,0.023784,-0.0160626,0.0200345,-45.5522,20.8,4.62788,0.493313,0.457062,0.651581,0.350969
105,3677.18,24,138.0,33.8125,-9.01979,3.43829,1.74078,-8.89032,3.51097,1.91297,-0.0200179,0.000331922,-0.0476419,36.4852,-28.7591,-33.5906,0.0468652,0.584022,-0.268471,-0.764621,36.375,0.915866,9.8424,-0.670079,0.935799,9.90265,-0.0571038,0.00454844,-0.027194,-0.0429708,16.7187,-40.9226,-13.7604,0.677338,-0.670093,0.241419,0.184137,34.0625,9.43437,0.00232436,-3.0452,9.46982,0.0438323,-2.64517,0.00266258,0.016333,0.0155563,-45.6701,20.4201,4.76974,0.493482,0.456971,0.651508,0.350985
105,3677.19,24,138.0,33.8125,-8.94903,3.51224,1.58764,-8.86018,3.4504,1.97347,-0.00146088,-0.0241156,-0.00640889,35.864,-28.85,-33.4576,0.0469937,0.583847,-0.268616,-0.764696,36.375,1.02305,9.72753,-0.900089,0.904258,9.85772,-0.253508,0.00662724,0.0252889,-0.0432427,16.7219,-41.4389,-13.4754,0.677306,-0.670176,0.241247,0.184174,34.0625,9.47459,0.115351,-2.96831,9.51476,0.0286801,-2.67563,-0.0349843,0.0126408,0.00124326,-45.5366,20.2855,5.05403,0.493424,0.457068,0.651432,0.351081
105,3677.2,24,138.0,33.8125,-9.06266,3.47518,1.58606,-8.82941,3.54078,1.95814,0.0119508,-0.00841335,-0.0216032,36.1176,-28.74,-34.2461,0.0470998,0.583798,-0.268488,-0.764772,36.375,0.938414,9.57534,-1.17217,0.886739,9.73741,-0.540891,0.0471171,-0.0109856,-0.0312278,16.6008,-41.1757,-14.1828,0.677188,-0.670119,0.241567,0.184399,34.0625,9.50891,0.154046,-3.08397,9.51478,0.11943,-2.67592,0.00721537,0.0273126,-0.00480999,-45.2897,20.5298,4.77095,0.493521,0.456957,0.651407,0.351136
105,3677.21,24,138.0,33.8125,-8.94876,3.55018,1.58752,-8.82991,3.52564,1.91288,-0.0237765,-0.0115218,-0.0204989,35.6169,-28.713,-33.8516,0.0471233,0.583729,-0.268392,-0.764857,36.375,1.21655,9.53944,-0.779809,1.0354,9.61656,-0.708377,0.100026,0.00668261,-0.0455861,17.1209,-41.9692,-13.7517,0.676714,-0.670557,0.241663,0.18442,34.0625,9.51071,0.0774661,-3.00629,9.53011,0.089276,-2.60023,-0.0119908,0.0350431,0.0424763,-46.0573,20.6973,4.90989,0.493694,0.457044,0.651191,0.351178
105,3677.22,24,138.0,33.8125,-9.0927,3.43954,1.81666,-8.82966,3.55584,1.91281,0.00266123,-0.0207165,-0.00708092,35.8534,-28.2288,-33.1988,0.0471573,0.583615,-0.268343,-0.764959,36.375,1.01313,9.58351,0.0682227,0.97811,9.61602,-0.22443,0.0704379,0.0101532,-0.0562667,17.1021,-41.1951,-13.3332,0.676396,-0.670959,0.241462,0.184387,34.0625,9.54963,0.152845,-2.96777,9.53019,0.164919,-2.58534,0.00813972,0.0268102,0.0251218,-45.5389,20.5439,5.33738,0.493653,0.457282,0.651094,0.351108
105,3677.23,24,138.0,33.8125,-8.9091,3.43674,1.66547,-8.77039,3.46477,1.88275,0.0179193,-0.0462729,-0.00352866,35.7463,-29.0922,-33.8496,0.0473207,0.583361,-0.268596,-0.765053,36.375,1.21914,9.65292,-0.70269,0.844898,9.61582,0.139076,0.00527956,-0.019642,-0.0155984,17.1032,-40.8078,-13.7584,0.676476,-0.670863,0.241468,0.184436,34.0625,9.46779,0.0793093,-3.19969,9.51523,0.134685,-2.57003,0.00498669,-0.0163746,0.00501504,-45.4256,20.9228,4.77001,0.493591,0.457341,0.651114,0.351082
105,3677.24,24,138.0,33.8125,-8.79654,3.51141,1.62841,-8.70972,3.49455,1.89772,-0.0326538,-0.0672289,-0.033276,35.4854,-28.5814,-33.196,0.0474366,0.583084,-0.268544,-0.765276,36.375,1.29671,9.72825,-0.662808,0.963057,9.58583,-0.194202,0.0894408,0.0067685,-0.0501474,16.9897,-41.9645,-13.6116,0.676187,-0.671182,0.241411,0.184409,34.0625,9.54684,0.0395816,-3.04428,9.51511,0.164897,-2.60039,0.0104455,-0.00668221,0.0169364,-45.2877,20.6597,5.1963,0.493458,0.45757,0.651114,0.35097
105,3677.25,24,138.0,33.8125,-8.71748,3.43595,1.74532,-8.67946,3.49435,1.91279,0.00691816,-0.027336,-0.00723902,36.362,-28.7527,-33.7216,0.0475011,0.582934,-0.268548,-0.765384,36.375,1.24602,9.72552,-1.08965,1.08189,9.66149,-0.527176,0.129203,-0.0328437,-0.0703549,17.3773,-41.5914,-14.034,0.675651,-0.671604,0.241605,0.184586,34.0625,9.39734,0.0784986,-3.04605,9.51485,0.134573,-2.66084,0.0114338,-0.0294091,0.02224,-45.6783,20.8067,4.76926,0.493453,0.4576,0.651165,0.350843
105,3677.26,24,138.0,33.8125,-8.8788,3.51032,1.43475,-8.66464,3.49421,1.88257,-0.015002,-0.0240565,0.00427893,35.735,-28.099,-34.118,0.0474053,0.582842,-0.268196,-0.765584,36.375,1.21974,9.87884,-0.703413,1.15787,9.79717,-0.542353,0.0924034,0.00785048,-0.060952,16.9736,-41.0613,-13.4758,0.675271,-0.671987,0.241603,0.184583,34.0625,9.47368,0.15364,-3.00715,9.5454,0.134728,-2.53992,0.0373931,0.00948333,0.0226731,-45.1604,20.5238,4.91324,0.493566,0.457615,0.651125,0.350738
105,3677.27,24,138.0,33.8125,-8.75875,3.51112,1.62898,-8.74012,3.52492,1.83728,-0.0163901,-0.0309877,-0.00348333,36.1133,-28.9873,-33.326,0.0473639,0.582672,-0.268385,-0.76565,36.375,0.99687,9.9185,-0.513975,1.03944,9.84234,-0.269481,0.023256,0.0544216,-0.0256087,17.1309,-41.7107,-14.5991,0.675443,-0.671789,0.24171,0.184532,34.0625,9.50922,0.00185014,-3.04443,9.54527,0.134691,-2.57019,0.0767993,0.0176452,0.00709856,-45.2842,20.2721,4.77127,0.49386,0.457342,0.65117,0.350597
105,3677.28,24,138.0,33.8125,-8.94475,3.36183,1.74216,-8.78482,3.58565,1.83719,-0.0274653,-0.0285854,-0.0302895,35.9883,-28.6087,-33.853,0.0473588,0.582588,-0.268168,-0.76579,36.375,0.881183,9.84329,-0.554547,0.844897,9.84255,-0.102067,-0.0097048,0.0549033,-0.0488587,16.9862,-41.5773,-13.7548,0.675613,-0.671718,0.241439,0.184524,34.0625,9.47219,0.0780244,-3.04528,9.51505,0.164879,-2.61553,-0.0218012,-0.0298277,0.0237241,-45.4233,20.6644,4.48666,0.493861,0.457348,0.651146,0.350633
105,3677.29,24,138.0,33.8125,-9.10179,3.47513,1.54699,-8.81546,3.55564,1.80709,-0.0509816,-0.0436818,-0.0469604,35.6174,-28.5891,-34.1148,0.0473815,0.582483,-0.267806,-0.765995,36.375,0.874519,9.91705,-0.787233,0.769702,9.87294,-0.131751,0.0188852,0.0500753,-0.0501866,17.2415,-41.5869,-13.612,0.675594,-0.671857,0.241123,0.1845,34.0625,9.46889,0.0789881,-3.16109,9.49971,0.179908,-2.69117,0.0134507,0.00777517,0.0115657,-45.3064,21.1735,4.48648,0.493947,0.457266,0.651154,0.350602
105,3677.3,24,138.0,33.8125,-9.14145,3.39921,1.50816,-8.89108,3.48072,1.85263,-0.0402384,-0.0317206,-0.0146812,35.2415,-28.4448,-33.9837,0.0473669,0.582364,-0.267606,-0.766157,36.375,0.992195,9.87981,-0.668818,0.784689,9.96362,-0.237366,0.00294499,0.0335286,-0.0452946,16.9853,-41.0609,-14.1808,0.675729,-0.671673,0.241129,0.18467,34.0625,9.40064,0.077535,-2.93024,9.51488,0.225323,-2.66113,-0.0126929,-0.0100264,0.00739126,-45.5483,21.0598,5.47858,0.4936,0.457673,0.651172,0.350529
105,3677.31,24,138.0,33.8125,-9.02621,3.47455,1.54812,-8.89107,3.4958,1.8375,-0.048708,-0.0641027,-0.0609595,35.7328,-28.0987,-33.8555,0.0475197,0.582211,-0.267075,-0.766448,36.375,1.02439,9.80309,-0.86159,0.859164,9.93339,-0.328579,0.0372088,0.0488795,-0.0326942,17.371,-41.3334,-13.8945,0.675655,-0.671809,0.241008,0.184604,34.0625,9.47298,0.229899,-3.04622,9.49998,0.225357,-2.63078,0.0274766,-0.0296944,-0.0234093,-45.2834,20.5312,5.3383,0.493331,0.457777,0.651372,0.350399
105,3677.32,24,138.0,33.8125,-8.94743,3.55052,1.62602,-8.86056,3.51071,1.86764,-0.0487673,-0.0870276,-0.0433172,35.7363,-28.595,-33.4589,0.0476371,0.581898,-0.266939,-0.766726,36.375,1.03011,9.80439,-0.667886,0.919155,9.94841,-0.374235,-0.00377574,0.00859765,-0.0663775,17.1017,-41.3242,-13.1914,0.675534,-0.671983,0.240745,0.184756,34.0625,9.47789,0.114387,-2.8525,9.49998,0.225357,-2.63078,-0.0224196,0.0317769,0.00854544,-45.8107,21.33,5.33552,0.493164,0.458062,0.65124,0.350507
105,3677.33,24,138.0,33.8125,-9.02621,3.47455,1.54812,-8.87563,3.51082,1.86765,-0.0101347,-0.0480377,-0.0490743,35.7352,-28.5948,-33.3276,0.0478355,0.581731,-0.266977,-0.766827,36.375,1.18724,9.8426,-0.510279,0.91876,9.85781,-0.34427,-0.000570143,-0.00747976,-0.0796109,17.1118,-41.0658,-14.0389,0.675546,-0.671878,0.240735,0.185107,34.0625,9.50891,0.154046,-3.08397,9.51517,0.164916,-2.58526,-0.00842503,-0.00868926,-0.00440104,-46.1978,21.0893,4.48344,0.493267,0.457845,0.651238,0.350649
105,3677.34,24,138.0,33.8125,-9.05625,3.62828,1.73959,-8.89044,3.60149,1.80707,-0.00228685,-0.0623124,-0.0561174,35.5957,-27.4705,-33.3342,0.0480305,0.581594,-0.266534,-0.767073,36.375,1.06708,9.80401,-0.705935,0.857844,9.78255,-0.389459,0.00715242,0.0137553,-0.0408616,17.0982,-40.937,-13.3347,0.675445,-0.672007,0.240601,0.18518,34.0625,9.42506,0.119121,-3.39333,9.5603,0.149819,-2.57031,0.0389878,0.00761118,0.00611721,-46.0611,20.9554,5.05141,0.493342,0.457806,0.65125,0.350571
105,3677.35,24,138.0,33.8125,-8.94743,3.55052,1.62602,-8.84535,3.61624,1.77679,-0.0244104,-0.0555019,-0.0378033,35.6102,-28.4642,-33.4594,0.0480597,0.581418,-0.266506,-0.767214,36.375,0.911837,9.6157,-0.785578,0.827384,9.73736,-0.404519,0.0286667,0.00742757,-0.048726,17.2336,-41.0707,-13.615,0.675293,-0.672144,0.240543,0.185313,34.0625,9.43338,-0.187519,-3.04403,9.54513,0.0741543,-2.60026,0.01072,0.00292451,0.00521112,-45.5541,20.6701,4.20253,0.493649,0.457439,0.65123,0.350656
105,3677.36,24,138.0,33.8125,-8.91471,3.39746,1.51157,-8.83015,3.64632,1.7616,-0.0699041,-0.0251651,-0.0307334,36.2352,-28.2499,-34.2493,0.0478493,0.581411,-0.265982,-0.767415,36.375,0.987122,9.69051,-0.823178,0.872964,9.75226,-0.344301,0.00546876,0.0061582,-0.0317968,16.3397,-41.5536,-13.6184,0.675419,-0.671945,0.240658,0.18543,34.0625,9.54413,0.154451,-3.16079,9.51516,0.104416,-2.58506,0.0489104,0.0279791,-0.0291139,-45.544,20.4133,4.62836,0.493907,0.457029,0.651285,0.350724
105,3677.37,24,138.0,33.8125,-8.98067,3.62769,1.74073,-8.79925,3.64618,1.85218,-0.0526021,-0.0567046,-0.00311527,35.6208,-29.0854,-33.7181,0.0476785,0.581137,-0.266199,-0.767558,36.375,1.07335,9.57964,-0.472767,0.858001,9.72205,-0.29896,-0.00744996,0.0181137,-0.0530885,16.9858,-41.7064,-13.6131,0.675461,-0.671914,0.240523,0.185561,34.0625,9.51091,0.115435,-3.00653,9.48499,0.104373,-2.61517,0.0149304,0.00117567,0.00756902,-45.9396,20.9476,4.48451,0.494072,0.456845,0.65129,0.350724
105,3677.38,24,138.0,33.8125,-8.87238,3.47405,1.6274,-8.78381,3.63102,1.9126,-0.0456069,-0.0140998,-0.00916892,34.9939,-28.4317,-34.1145,0.0475056,0.581061,-0.266108,-0.767658,36.375,1.18217,9.6533,-0.66464,0.902099,9.6315,-0.375052,0.012648,0.0207602,-0.0592017,16.9819,-41.4483,-13.6146,0.67542,-0.671965,0.240407,0.185677,34.0625,9.62209,0.115045,-3.04397,9.53027,0.210313,-2.57035,-0.0191688,0.00218748,-0.0106292,-45.6674,20.2912,4.7699,0.49406,0.456762,0.651247,0.350928
105,3677.39,24,138.0,33.8125,-8.91258,3.51161,1.5497,-8.75506,3.54013,1.83726,-0.0454748,-0.0446479,0.00488741,35.6118,-28.0925,-34.249,0.0473187,0.580904,-0.265791,-0.767898,36.375,1.29786,9.72851,-0.624067,1.06793,9.66127,-0.345742,0.051689,-0.00951376,-0.0583493,17.6236,-41.4721,-13.469,0.675132,-0.672293,0.240278,0.185704,34.0625,9.51421,0.114471,-2.89072,9.5603,0.164944,-2.57036,0.0207344,0.0214385,0.0211659,-45.5401,20.1552,4.48684,0.494368,0.456523,0.651137,0.35101
105,3677.4,24,138.0,33.8125,-8.83299,3.51204,1.66635,-8.72517,3.49462,1.85243,-0.0557223,-0.0139066,0.0341563,35.6162,-28.341,-34.3788,0.0469818,0.580809,-0.265619,-0.768049,36.375,1.22526,9.80483,-0.509468,1.1139,9.75166,-0.300419,0.0193157,0.0224519,-0.0954224,16.9717,-40.9322,-13.4766,0.675074,-0.67241,0.240018,0.185825,34.0625,9.58666,0.0766707,-2.96692,9.53034,0.225456,-2.55526,-0.0240639,-0.0222429,0.0403318,-45.5646,21.3152,4.48541,0.494296,0.45673,0.651043,0.351016
105,3677.41,24,138.0,33.8125,-8.99136,3.43565,1.4718,-8.73923,3.63063,1.83705,-0.0550402,0.00866136,0.063304,35.8644,-28.4782,-34.116,0.0464296,0.580759,-0.265639,-0.768114,36.375,1.2185,9.84093,-0.742033,1.12958,9.7817,-0.224863,-0.0075001,0.0446372,-0.0652254,16.9752,-41.3194,-13.3333,0.675157,-0.672457,0.239701,0.185762,34.0625,9.46999,0.0786669,-3.12249,9.53017,0.0892945,-2.58509,0.0157124,0.021185,0.0542353,-45.7924,20.1687,4.7696,0.49458,0.456719,0.650865,0.350961
105,3677.42,24,138.0,33.8125,-9.05839,3.51412,1.70146,-8.76861,3.67619,1.88228,-0.0511274,0.00800898,0.0374306,35.8644,-28.4782,-34.116,0.0459802,0.580732,-0.265602,-0.768174,36.375,1.10624,9.7665,-0.666383,1.06989,9.8573,-0.224283,0.0401214,0.00103508,-0.0547454,17.4862,-41.2094,-13.1894,0.674939,-0.672767,0.239479,0.185723,34.0625,9.50871,0.116077,-3.08373,9.48472,0.0589234,-2.67557,-0.00193225,0.00737716,-0.000294589,-45.033,20.9058,5.62241,0.494191,0.457234,0.650896,0.350782
105,3677.43,24,138.0,33.8125,-8.99457,3.3591,1.39504,-8.69516,3.50948,1.82217,-0.100178,0.0303544,0.0600724,35.3659,-28.4515,-33.9839,0.0453589,0.580762,-0.265527,-0.768215,36.375,0.949206,9.76594,-0.82411,0.993949,9.8123,-0.299519,0.0284791,-0.0070063,-0.0624188,17.3656,-41.5917,-13.3291,0.674763,-0.672967,0.239333,0.185822,34.0625,9.65771,0.191387,-3.12126,9.43966,0.0740386,-2.67538,-0.0104798,-0.0213926,0.0151679,-45.6678,20.6795,5.47861,0.493892,0.457619,0.650957,0.350585
105,3677.44,24,138.0,33.8125,-8.99216,3.32183,1.47217,-8.72631,3.40397,1.80733,-0.152221,0.00604943,0.0611149,35.4875,-28.3338,-33.8536,0.0446781,0.580714,-0.265223,-0.768396,36.375,0.995527,9.84294,-0.552475,0.888089,9.73709,-0.314211,0.050782,0.0401733,-0.0793061,17.2388,-41.716,-13.3293,0.674569,-0.673262,0.239029,0.185848,34.0625,9.54963,0.152845,-2.96777,9.45497,0.195116,-2.61531,0.0262741,-0.0163685,0.00113243,-45.667,20.4207,5.05341,0.493853,0.457601,0.651049,0.350495
105,3677.45,24,138.0,33.8125,-8.98816,3.5122,1.54857,-8.81636,3.43484,1.82246,-0.0989402,-0.016313,0.0351853,35.9882,-28.3608,-34.2482,0.0442894,0.580624,-0.264915,-0.768592,36.375,0.834663,9.69099,-0.825942,0.888569,9.81256,-0.313994,0.0295204,0.023466,-0.0334886,17.1021,-41.1951,-13.3332,0.674501,-0.673365,0.238956,0.185817,34.0625,9.55113,0.228461,-2.92964,9.51493,0.195092,-2.6459,0.0402335,0.0197658,0.00702221,-45.8076,20.8127,4.62697,0.494075,0.457362,0.651061,0.35047
105,3677.46,24,138.0,33.8125,-8.90509,3.43775,1.78099,-8.78583,3.47993,1.82233,-0.102306,-0.0269985,0.043988,35.6191,-28.7133,-34.1141,0.0438411,0.580448,-0.264859,-0.768771,36.375,0.875265,9.76669,-0.74801,0.843163,9.7825,-0.32892,0.035181,-0.00949299,-0.0606846,17.3789,-41.8496,-13.8915,0.674408,-0.673377,0.239006,0.186048,34.0625,9.65711,0.0774814,-3.12056,9.51501,0.240485,-2.63091,-0.0485751,0.0414349,-0.0103385,-45.7963,20.4268,4.91112,0.494071,0.457326,0.650901,0.350819
105,3677.47,24,138.0,33.8125,-8.87131,3.43645,1.66604,-8.78622,3.40445,1.85269,-0.0837294,-0.0253861,0.0300775,35.4897,-28.3341,-34.1161,0.0435443,0.580304,-0.264683,-0.768957,36.375,0.948262,9.84098,-0.863092,0.768712,9.87318,-0.297982,0.0297114,0.0100807,-0.0221882,17.2332,-41.1998,-13.4732,0.674332,-0.673439,0.239021,0.186079,34.0625,9.47049,-0.0355601,-3.08318,9.56003,0.0892454,-2.63066,-0.013485,0.0177051,0.0139512,-45.6592,19.9045,4.77037,0.494254,0.457198,0.650768,0.350976
105,3677.48,24,138.0,33.8125,-8.94395,3.47564,1.74179,-8.74176,3.41913,1.74691,-0.0601985,-0.0673732,0.00897508,35.2376,-28.0724,-34.1172,0.0434053,0.580057,-0.264454,-0.769229,36.375,0.961788,9.76879,-0.397961,0.798045,9.79771,-0.343716,0.0396147,-0.0148131,-0.0433704,17.2465,-41.4576,-14.0357,0.674268,-0.673362,0.23923,0.186323,34.0625,9.28576,0.00295155,-3.00814,9.51508,0.0438978,-2.6,0.0337539,0.00229944,0.0225961,-45.9435,21.2057,4.62603,0.49441,0.457144,0.650766,0.35083
105,3677.49,24,138.0,33.8125,-8.95224,3.43569,1.51088,-8.84776,3.3444,1.76228,-0.00827863,-0.0618091,0.0257092,35.6096,-28.3401,-33.5914,0.0434106,0.579774,-0.264661,-0.769371,36.375,0.950251,9.72854,-0.785249,0.858588,9.84283,-0.328838,0.00426836,-0.0172061,-0.0146893,17.3753,-41.4624,-14.0348,0.674325,-0.673175,0.23947,0.186481,34.0625,9.43716,0.115588,-2.96869,9.4998,0.0286954,-2.66041,0.0240677,-0.0332021,0.0143603,-45.5393,20.4144,5.05387,0.494327,0.457255,0.650882,0.350587
105,3677.5,24,138.0,33.8125,-9.02568,3.36107,1.587,-8.84637,3.45016,1.82245,-0.017101,-0.023558,0.0234864,35.2393,-28.1966,-34.1164,0.0433071,0.579649,-0.264693,-0.76946,36.375,1.10957,9.72962,-0.55004,0.99423,9.84246,-0.28432,0.00295343,-0.0292619,-0.0250384,17.6243,-41.2139,-13.7524,0.674301,-0.673132,0.239574,0.18659,34.0625,9.43386,0.116551,-3.0845,9.54501,0.0892421,-2.63058,0.062245,-0.00819219,-0.0239038,-45.2912,20.5295,4.62911,0.494449,0.456958,0.651066,0.350461
105,3677.51,24,138.0,33.8125,-8.95037,3.51191,1.54913,-8.78483,3.51021,1.91286,-0.0283539,-0.0192983,0.00342256,35.7406,-28.3476,-34.379,0.0432118,0.579558,-0.264575,-0.769575,36.375,1.2185,9.84093,-0.742033,0.963866,9.81237,-0.299337,0.0126571,-0.00788137,-0.02687,17.2259,-41.3291,-12.9085,0.674146,-0.673334,0.239458,0.186569,34.0625,9.54963,0.152845,-2.96777,9.56006,0.19512,-2.631,0.0176637,0.0603127,0.000253416,-45.2866,20.5305,5.05462,0.494546,0.456945,0.650963,0.350532
105,3677.52,24,138.0,33.8125,-9.01926,3.51417,1.74053,-8.79951,3.60089,1.86738,-0.0151141,-0.0405451,-0.0171448,35.2443,-28.5692,-34.1142,0.0432155,0.579392,-0.26468,-0.769664,36.375,1.13635,9.76456,-0.936878,0.993847,9.78209,-0.284493,0.000542086,-0.0288138,-0.0441709,17.2404,-41.9742,-13.1868,0.674061,-0.673399,0.239413,0.186702,34.0625,9.59016,0.113676,-2.85134,9.54537,0.285959,-2.55554,-0.0120563,-0.0165686,0.00575611,-45.8053,21.0722,5.33583,0.494221,0.457298,0.650963,0.350531
105,3677.53,24,138.0,33.8125,-9.10153,3.51307,1.54687,-8.85979,3.60132,1.86744,-0.0110148,-0.0459549,0.0261852,35.4869,-28.2097,-33.9856,0.0430698,0.579175,-0.264748,-0.769811,36.375,1.10147,9.69015,-0.821105,0.993199,9.7369,-0.345071,0.00317285,0.0159317,-0.0638719,17.2415,-41.5869,-13.612,0.67408,-0.673394,0.239291,0.186806,34.0625,9.58427,0.0393445,-3.04389,9.53065,0.210424,-2.47954,-0.0193189,0.0205054,0.0273536,-45.6826,20.9352,4.62726,0.494312,0.457346,0.650772,0.350695
105,3677.54,24,138.0,33.8125,-8.97773,3.47694,1.85674,-8.76987,3.60062,1.80694,-0.0163806,-0.00780467,0.0181551,35.7261,-27.6019,-33.8585,0.0428661,0.57916,-0.264505,-0.769917,36.375,1.1052,9.80389,-0.705245,0.902483,9.69187,-0.374879,0.0176326,0.0625186,-0.0218076,17.3492,-40.8176,-13.0516,0.674008,-0.673634,0.239008,0.186563,34.0625,9.54944,0.114876,-2.96754,9.57517,0.0741608,-2.60042,-0.0524156,-0.0257712,-0.00152606,-45.2862,20.1422,4.34591,0.494334,0.457217,0.650709,0.350948
105,3677.55,24,138.0,33.8125,-8.95037,3.51191,1.54913,-8.8004,3.52535,1.83734,-0.0258581,-0.0322003,0.0489965,35.8639,-28.3541,-34.248,0.0425998,0.578977,-0.264546,-0.770056,36.375,1.10365,9.65302,-0.743503,0.917518,9.67672,-0.359901,0.0392392,0.00186756,-0.0207391,17.3554,-41.0756,-13.1911,0.673831,-0.673832,0.238995,0.186505,34.0625,9.51052,0.0394975,-3.00606,9.49999,0.0287511,-2.61501,0.0462335,-0.00563268,0.00758755,-45.674,20.6782,4.91126,0.494406,0.457179,0.65079,0.350745
105,3677.56,24,138.0,33.8125,-9.10072,3.43753,1.58562,-8.78507,3.54036,1.85239,-0.0365289,-0.0134649,0.0678451,35.7378,-28.2233,-34.2485,0.0421994,0.578847,-0.264558,-0.770172,36.375,1.032,9.65429,-0.589922,0.947499,9.64644,-0.345058,-0.0320352,-0.0302213,-0.0222367,17.2173,-41.0711,-12.628,0.673753,-0.673924,0.238892,0.186583,34.0625,9.55164,0.114234,-2.89033,9.52976,-0.0469414,-2.67547,0.00517084,0.0182565,-0.0214428,-45.7952,20.8155,5.76166,0.494092,0.45753,0.650875,0.350572
105,3677.57,24,138.0,33.8125,-8.9493,3.4743,1.58776,-8.81547,3.49529,1.86762,-0.0535276,-0.0126802,0.0467585,35.3631,-28.3271,-33.8534,0.0418719,0.578722,-0.264634,-0.770258,36.375,0.912036,9.69101,-0.785819,0.887892,9.69179,-0.299228,-0.00837385,0.0260956,-0.00939541,17.1099,-41.7113,-13.3302,0.67386,-0.673854,0.238858,0.186495,34.0625,9.3559,0.155958,-3.20132,9.52992,0.0740953,-2.64559,0.0449366,0.00881591,-0.0119738,-45.1658,20.7816,4.91292,0.494117,0.457466,0.650967,0.35045
105,3677.58,24,138.0,33.875,-9.05651,3.40098,1.77884,-8.84574,3.49549,1.85255,-0.017691,0.0217034,0.0575281,35.3698,-28.576,-34.2456,0.0415753,0.578709,-0.264881,-0.770198,36.375,0.798637,9.61632,-0.74891,0.872574,9.67678,-0.329405,0.0328254,-0.0043573,-0.0354139,17.7457,-40.5734,-13.8962,0.673761,-0.673891,0.238947,0.186606,34.0625,9.62138,0.191303,-3.08304,9.49999,0.255607,-2.63088,0.0183316,0.0024896,-0.00895222,-45.926,20.8211,5.47753,0.493912,0.45763,0.651047,0.350377
105,3677.59,24,138.0,33.875,-8.94448,3.39977,1.74204,-8.86031,3.46548,1.94324,-0.0778798,0.00608593,0.0453751,35.2366,-28.3202,-33.5907,0.0412081,0.578638,-0.264924,-0.770257,36.375,0.954826,9.72958,-0.630285,0.842588,9.69194,-0.32918,0.0423085,0.00174759,-0.0154028,17.1157,-41.3238,-14.0374,0.673779,-0.673748,0.239236,0.186687,34.0625,9.50741,0.0784298,-3.1221,9.53023,0.301044,-2.58578,-0.0061793,-0.0445543,-0.00709469,-45.9354,20.8191,4.62651,0.493801,0.457546,0.651149,0.350454
105,3677.6,24,138.0,33.875,-8.90963,3.36086,1.66572,-8.80015,3.43485,1.95835,-0.0577408,-0.00282838,0.0428435,35.6145,-27.9689,-34.7747,0.0409126,0.578594,-0.264536,-0.770438,36.375,0.914822,9.87979,-0.70894,0.784528,9.78227,-0.071653,-0.0229353,-0.0108442,-0.0433846,17.4971,-41.4673,-13.6109,0.673898,-0.673618,0.239132,0.186859,34.0625,9.43586,0.0779403,-3.00706,9.54549,0.240622,-2.52512,0.00892127,0.000487567,-0.000330635,-45.4256,20.9228,4.77001,0.493781,0.457538,0.651131,0.350525
105,3677.61,24,138.0,33.875,-8.95224,3.43569,1.51088,-8.80066,3.4348,1.89794,-0.0648597,0.00892251,0.0188976,35.6039,-27.5956,-34.1208,0.0406794,0.578635,-0.264071,-0.77058,36.375,0.991996,9.80451,-0.668576,0.889367,9.78214,-0.147849,-0.0139066,-0.0129786,-0.0217025,16.8484,-41.4437,-13.3335,0.674042,-0.673437,0.239179,0.186934,34.0625,9.39734,0.0784986,-3.04605,9.53024,0.119563,-2.57006,-0.020485,-0.0138201,0.00654744,-45.5455,20.413,4.48652,0.493872,0.457399,0.651078,0.350675
105,3677.62,24,138.0,33.875,-8.9083,3.3612,1.70422,-8.84524,3.46537,1.94322,-0.0964279,0.0208648,0.0472811,35.1149,-28.19,-34.1162,0.0402315,0.578637,-0.263926,-0.770651,36.375,1.29244,9.84017,-0.818133,0.872688,9.73721,-0.374568,0.00973258,0.0437399,-0.0258175,17.4991,-41.5964,-13.6101,0.67405,-0.673496,0.239057,0.186845,34.0625,9.39674,-0.0354071,-3.04535,9.455,0.0892596,-2.59983,0.0128284,0.0425888,-0.001501,-45.1732,20.9094,4.48725,0.494086,0.457209,0.651002,0.350765
105,3677.63,24,138.0,33.875,-8.9099,3.32293,1.66584,-8.77014,3.44971,1.92808,-0.0451823,0.0369017,0.0501393,35.241,-28.3208,-34.1157,0.039896,0.578682,-0.264027,-0.7706,36.375,1.30512,9.88067,-0.392105,1.00936,9.84241,-0.269299,0.00867509,0.0242296,-0.0329548,17.2266,-41.0709,-13.192,0.674039,-0.673591,0.238897,0.186749,34.0625,9.47549,0.0770608,-2.92947,9.51477,0.05893,-2.67573,0.0211538,0.0105425,-0.00650605,-45.7983,20.8148,5.47799,0.493917,0.457415,0.651076,0.350596
105,3677.64,24,138.0,33.875,-9.05999,3.28649,1.7022,-8.80079,3.37443,1.94338,-0.0797396,0.0153297,0.048156,35.4885,-28.086,-34.3801,0.0395439,0.578676,-0.263784,-0.770706,36.375,1.14102,9.80325,-0.782035,1.11446,9.81199,-0.270022,0.0446264,-0.00129197,-0.0253289,17.2352,-41.3288,-13.4725,0.673953,-0.673677,0.238965,0.186661,34.0625,9.58376,0.153572,-3.08319,9.54481,0.0438116,-2.67584,0.0127017,0.0117659,0.00293604,-45.9369,21.3367,5.4769,0.493714,0.457736,0.651081,0.350454
105,3677.65,24,138.0,33.875,-9.05865,3.28682,1.74071,-8.72506,3.37393,1.9886,-0.0844256,0.00666507,0.0402947,35.8521,-27.7328,-33.858,0.0392332,0.578639,-0.263427,-0.770872,36.4375,0.954427,9.57897,-0.629803,1.02338,9.76704,-0.360278,0.0545142,-0.0244912,-0.0142102,17.2348,-41.4579,-13.3308,0.673756,-0.67382,0.239138,0.186637,34.0625,9.43956,0.152914,-2.89172,9.52988,0.179951,-2.66106,0.0222049,-0.0112475,0.00983487,-45.6779,20.9363,5.05278,0.493645,0.457817,0.651139,0.350336
105,3677.66,24,138.0,33.875,-8.98601,3.24763,1.66495,-8.75545,3.37412,1.95843,-0.06327,-0.0131356,0.0365894,35.4891,-28.21,-34.2481,0.0390096,0.578516,-0.263328,-0.77101,36.4375,0.95746,9.42913,-0.513098,0.827055,9.58628,-0.299168,-0.0188845,-0.053444,-0.00983937,17.6279,-41.6011,-13.6092,0.67376,-0.673691,0.239327,0.186844,34.0625,9.43846,0.153235,-2.93032,9.57508,0.195123,-2.63108,-0.02583,0.0043764,0.0177324,-45.8037,20.5546,4.48545,0.493797,0.457671,0.651023,0.35053
105,3677.67,24,138.0,33.875,-8.90883,3.28532,1.70447,-8.78609,3.37428,1.89806,-0.0824384,0.0292983,0.0109698,35.9904,-28.3611,-34.5106,0.0387627,0.578614,-0.263044,-0.771045,36.4375,1.10221,9.5398,-0.781882,0.871045,9.45041,-0.345166,-0.00543307,-0.0364877,-0.0322409,17.3644,-41.2045,-13.6133,0.673747,-0.673593,0.239466,0.187066,34.0625,9.55164,0.114234,-2.89033,9.56026,0.240551,-2.58574,0.00118664,-0.000942458,-0.00745405,-45.9283,20.5617,4.76866,0.493838,0.457525,0.651019,0.35067
105,3677.68,24,138.0,33.875,-8.83218,3.24713,1.74423,-8.74152,3.29845,1.89818,-0.078196,0.0333733,0.00447193,35.6207,-28.5895,-34.5085,0.0385929,0.57871,-0.262917,-0.771025,36.4375,1.06499,9.8788,-0.783658,0.946671,9.60129,-0.435859,0.0521004,0.00589149,-0.0164171,17.2254,-40.6836,-13.4762,0.673586,-0.673724,0.23959,0.187013,34.0625,9.51331,0.152761,-2.92955,9.54536,0.22546,-2.55534,-0.000312492,-0.0240768,0.0254101,-45.9229,20.3039,4.76898,0.493896,0.457494,0.650973,0.350713
105,3677.69,24,138.0,33.875,-8.79332,3.3986,1.74431,-8.69554,3.38873,1.89794,-0.0645582,-0.0119745,0.0190625,35.353,-27.582,-33.8579,0.0383946,0.578645,-0.26262,-0.771185,36.4375,1.14485,9.95464,-0.666295,1.02361,9.87279,-0.435535,0.0231402,-0.00970315,-0.0182587,17.471,-40.8226,-12.6277,0.673317,-0.674072,0.239453,0.186906,34.0625,9.51492,0.0382126,-2.85165,9.56035,0.119588,-2.55508,0.00160132,-0.0190795,0.0420045,-45.1604,20.5238,4.91324,0.493867,0.457712,0.650901,0.350603
105,3677.7,24,138.0,33.875,-9.02835,3.17104,1.54912,-8.71074,3.34356,1.92825,-0.0711361,0.0272449,-0.00983886,35.2364,-27.8243,-34.3811,0.0382698,0.578759,-0.262254,-0.771231,36.4375,1.00154,9.95719,-0.359132,1.01014,9.99338,-0.29909,-0.0188189,0.0372042,-0.0293262,16.848,-41.5728,-13.1918,0.673483,-0.673978,0.239319,0.18682,34.0625,9.46999,0.0786669,-3.12249,9.54501,0.104367,-2.63063,0.0448375,0.00269761,0.0210536,-45.4116,20.408,5.05433,0.493957,0.457719,0.650929,0.350415
105,3677.71,24,138.0,33.875,-9.05357,3.25023,1.89486,-8.84638,3.32946,1.94352,-0.0570594,0.0489117,-0.0214895,35.6168,-28.465,-34.2468,0.0382443,0.578934,-0.262189,-0.771123,36.4375,0.842271,9.54219,-0.554273,0.829406,9.84269,-0.177537,-0.00887955,0.0742977,-0.0368521,17.6147,-41.3433,-13.0468,0.67352,-0.674181,0.23882,0.18659,34.0625,9.46979,0.0406983,-3.12225,9.54481,0.0740615,-2.67594,0.00828078,-0.0197612,0.00341648,-45.4272,20.9225,4.62818,0.493961,0.457666,0.650999,0.350348
105,3677.72,24,138.0,33.875,-9.10259,3.36132,1.54736,-8.92198,3.37524,1.868,-0.0527335,0.0109992,-0.00427377,35.6174,-28.5891,-34.1148,0.0381836,0.578953,-0.262262,-0.771086,36.4375,0.836154,9.39028,-0.747495,0.73704,9.72247,-0.404017,0.0352317,0.0735822,-0.0373626,16.8405,-40.9275,-13.3365,0.673528,-0.67425,0.238674,0.1865,34.0625,9.39663,0.154757,-3.08512,9.52979,0.0740582,-2.67586,0.0225212,-0.000775398,0.00284427,-45.5584,21.3165,5.05275,0.493863,0.457811,0.651042,0.350219
105,3677.73,24,138.0,33.875,-9.17523,3.40051,1.62312,-8.9059,3.43559,1.92825,-0.0593781,-0.00821147,-0.029213,35.6112,-27.9684,-34.381,0.0381903,0.57896,-0.261911,-0.7712,36.4375,0.914324,9.69152,-0.708337,0.707707,9.79793,-0.358283,0.0215393,0.0645012,-0.0359406,17.1033,-41.5824,-13.049,0.673475,-0.674426,0.238403,0.1864,34.0625,9.31518,0.157159,-3.31751,9.48489,0.21021,-2.64578,0.0204271,-0.0128906,0.00272514,-46.06,20.8261,4.90973,0.493867,0.45774,0.651111,0.350176
105,3677.74,24,138.0,33.875,-8.98575,3.28557,1.66483,-8.89045,3.42043,1.98867,-0.0464516,0.0226627,-0.0698274,35.4829,-27.5894,-34.5143,0.0383541,0.579144,-0.261336,-0.771249,36.4375,0.913081,9.65361,-0.746958,0.766769,9.7376,-0.479716,-0.0378891,0.075959,-0.0403226,17.6166,-41.4723,-13.046,0.673535,-0.674548,0.237964,0.186302,34.0625,9.51221,0.153082,-2.96816,9.46994,0.240475,-2.63067,0.00616191,-0.0073507,0.0161311,-45.6717,20.9376,5.62012,0.49358,0.458124,0.651139,0.350028
105,3677.75,24,138.0,33.875,-9.02193,3.32414,1.70265,-8.84524,3.40501,2.00376,-0.026958,0.00960073,-0.0407486,35.8604,-27.8578,-34.6447,0.0384868,0.579221,-0.260985,-0.771303,36.4375,1.06688,9.7287,-0.705694,0.840938,9.61675,-0.525852,-0.0131612,0.0548303,-0.0460796,16.9795,-41.4484,-13.4736,0.673668,-0.674441,0.237859,0.186342,34.0625,9.47408,0.229578,-3.00761,9.51506,0.225379,-2.61572,-0.0012499,0.0284913,0.000692955,-45.6729,21.0668,5.7618,0.493313,0.458493,0.65109,0.350011
105,3677.76,24,138.0,33.875,-8.97826,3.40106,1.85699,-8.8308,3.40484,1.92824,-0.0288963,-0.00836165,-0.0538877,35.2415,-28.1969,-34.3789,0.0386845,0.579221,-0.260905,-0.77132,36.4375,0.873424,9.50286,-0.785907,0.871668,9.66188,-0.465456,-0.00989059,0.00128392,-0.0350527,17.3592,-40.5592,-13.899,0.673748,-0.674243,0.238029,0.186556,34.0625,9.47018,0.116635,-3.12272,9.51493,0.210217,-2.64594,-0.0180103,-0.0192359,0.0380127,-45.2795,20.2731,5.19678,0.493207,0.458728,0.651028,0.349969
105,3677.77,24,138.0,33.875,-8.97799,3.439,1.85687,-8.85917,3.51086,2.03374,0.0210197,-0.002414,-0.0221267,35.1194,-28.4385,-34.2459,0.0388797,0.579153,-0.261266,-0.771239,36.4375,1.06241,9.76532,-0.860778,0.87231,9.69195,-0.38981,-0.0235876,0.00652373,-0.0497966,17.8641,-40.9657,-12.9062,0.673655,-0.674442,0.237695,0.186596,34.0625,9.54484,0.0781927,-3.12172,9.46983,0.0892072,-2.64531,0.0506793,-0.000798181,0.0178852,-45.6725,20.6785,5.05309,0.493342,0.458655,0.651081,0.349776
105,3677.78,24,138.0,33.875,-8.83031,3.51271,1.74337,-8.78356,3.58578,1.9882,-0.00554489,0.00775541,-0.0305013,35.2415,-28.1969,-34.3789,0.0389289,0.579175,-0.261335,-0.771197,36.4375,0.952339,9.65375,-0.707526,0.887526,9.67677,-0.344608,-0.0300259,-0.00139842,-0.0620444,17.364,-41.3336,-13.4716,0.673754,-0.674316,0.237596,0.186819,34.0625,9.44077,-0.0375716,-2.81335,9.48497,0.0287478,-2.61493,0.04687,-0.0114526,-0.00191821,-45.6674,20.2912,4.7699,0.493572,0.458351,0.65116,0.349704
105,3677.79,24,138.0,33.875,-9.13985,3.43749,1.54655,-8.76887,3.57055,1.95802,-0.0393926,0.0325361,-0.0201162,35.1188,-28.3145,-34.3779,0.0388184,0.57928,-0.261376,-0.77111,36.4375,1.06564,9.69079,-0.744315,0.903029,9.70685,-0.299276,-0.0317936,0.0145707,-0.044114,17.2259,-41.3291,-12.9085,0.673809,-0.674333,0.237361,0.18686,34.0625,9.39654,-0.0733757,-3.04512,9.46976,0.0589387,-2.66035,0.0293055,0.0502888,0.0127939,-45.6811,20.9356,4.7691,0.493867,0.458158,0.651068,0.349709
105,3677.8,24,138.0,33.875,-8.94208,3.55186,1.78005,-8.81433,3.57085,1.92786,-0.0377746,0.0293337,-0.0160205,35.7406,-28.3476,-34.379,0.0386829,0.579389,-0.261362,-0.77104,36.4375,1.1046,9.57797,-0.704521,0.903227,9.75215,-0.314258,-0.0326886,0.0170646,-0.0456395,17.3676,-41.7208,-13.3283,0.673935,-0.674242,0.237201,0.186936,34.0625,9.51001,0.153725,-3.04536,9.48479,0.074067,-2.66048,-0.0129112,0.0102259,0.00127871,-45.4108,20.6671,5.62136,0.493607,0.458499,0.651063,0.349638
105,3677.81,24,138.0,33.875,-8.90482,3.47569,1.78086,-8.75481,3.52507,1.8826,-0.0307871,0.00788589,0.0201447,35.2454,-28.5693,-34.2454,0.0384905,0.579344,-0.261655,-0.770984,36.4375,1.10231,9.57745,-0.782003,0.918178,9.75214,-0.329461,0.00471158,0.0289589,-0.0252835,16.98,-42.0938,-12.9059,0.673933,-0.674318,0.237068,0.186838,34.0625,9.54693,0.267714,-3.08428,9.49988,0.104339,-2.64552,0.0230388,0.0161638,-0.00644838,-45.5479,20.6714,4.76988,0.493765,0.458283,0.651077,0.349673
105,3677.82,24,138.0,33.875,-8.94796,3.47464,1.62627,-8.75507,3.4496,1.92807,-0.0558101,0.0527254,-0.00547374,35.6117,-27.8446,-34.6442,0.0382866,0.579561,-0.261313,-0.770947,36.4375,1.06887,9.61626,-0.627851,1.03841,9.73678,-0.330232,0.0299301,0.00260699,-0.0181649,17.6139,-41.6015,-12.7633,0.673721,-0.674622,0.236936,0.186671,34.0625,9.51441,0.15244,-2.89095,9.5001,0.195144,-2.60041,0.0147814,-0.00294562,0.00201581,-45.2893,20.6594,5.05446,0.493709,0.458323,0.6511,0.349656
105,3677.83,24,138.0,33.875,-9.0214,3.40001,1.7024,-8.77077,3.43455,1.86771,-0.0787265,0.059475,0.0111568,34.991,-27.8115,-34.7744,0.0379379,0.579794,-0.260987,-0.770899,36.4375,1.10365,9.65302,-0.743503,1.02319,9.72174,-0.345296,0.0268674,0.0225384,-0.0291763,17.1055,-40.8077,-13.8994,0.673817,-0.674457,0.237124,0.186683,34.0625,9.47329,0.0777032,-3.00668,9.56025,0.210301,-2.58564,0.0209147,-0.0249987,0.011278,-45.6846,21.3232,5.19414,0.493524,0.458543,0.651148,0.349541
105,3677.84,24,138.0,33.875,-8.86382,3.55195,1.85819,-8.78521,3.40455,1.9735,-0.0537313,0.0286313,0.0288707,35.7407,-28.5956,-33.9838,0.0376894,0.579799,-0.261256,-0.770816,36.4375,0.987221,9.72816,-0.823299,0.993127,9.78226,-0.405389,-0.00202676,0.0335251,-0.0455894,17.4823,-40.9514,-13.1909,0.673813,-0.674546,0.236924,0.186633,34.0625,9.43276,0.116873,-3.12311,9.53031,0.119582,-2.55492,0.0391786,0.0133202,0.00853446,-45.1526,20.5255,5.62243,0.493408,0.458781,0.651168,0.349355
105,3677.85,24,138.0,33.875,-8.93726,3.47732,1.93432,-8.78407,3.51029,2.00347,-0.0898964,0.0242116,0.0132149,35.2292,-27.4515,-34.1209,0.0373426,0.579872,-0.260844,-0.770918,36.4375,0.990852,9.80425,-0.707317,0.857641,9.72213,-0.359408,0.00767208,0.0144271,-0.0691795,17.3508,-41.0758,-12.9091,0.673692,-0.674732,0.236654,0.186736,34.0625,9.50592,0.00281383,-3.16024,9.48492,0.089229,-2.63026,-0.0369398,0.00461112,0.00352603,-45.2936,20.7879,4.91247,0.493344,0.458859,0.651079,0.349509
105,3677.86,24,138.0,33.875,-8.94608,3.36149,1.70366,-8.78407,3.48011,2.03373,-0.125715,0.0343542,0.00973217,35.484,-27.5895,-34.6455,0.0369075,0.579998,-0.260222,-0.771055,36.4375,0.915966,9.88005,-0.670199,0.782722,9.76758,-0.358824,0.00760067,0.024949,-0.0288072,17.9952,-40.9704,-13.0462,0.673571,-0.674971,0.236389,0.186648,34.0625,9.50891,0.154046,-3.08397,9.48454,0.0739927,-2.72102,0.0223369,0.0203155,-0.000897119,-45.8006,20.5553,4.76912,0.493587,0.458568,0.651082,0.349541
105,3677.87,24,138.0,33.875,-9.05892,3.24888,1.74083,-8.75469,3.40438,2.01877,-0.123346,0.0138184,-0.00844738,35.1188,-28.3145,-34.3779,0.0366536,0.579996,-0.260033,-0.771131,36.4375,0.837349,9.84212,-0.748942,0.753005,9.78268,-0.313263,-0.0161367,0.0368912,-0.0158745,17.4787,-40.5642,-13.3341,0.673687,-0.674895,0.236301,0.186611,34.0625,9.3614,0.154352,-3.0083,9.48483,0.210192,-2.66092,0.0430595,0.00322144,-0.00966801,-45.5674,21.444,4.48525,0.493721,0.458298,0.651196,0.349495
105,3677.88,24,138.0,33.875,-8.82763,3.32402,1.85951,-8.78597,3.31394,1.9737,-0.112352,0.00146108,-0.00870271,34.87,-28.0532,-34.7727,0.0364861,0.579978,-0.259705,-0.771263,36.4375,0.950549,9.8415,-0.78561,0.78337,9.81277,-0.298246,-0.0162601,0.0262894,-0.0182727,17.3585,-40.8174,-13.6155,0.673864,-0.674693,0.23634,0.186654,34.0625,9.39883,0.154115,-3.00792,9.48465,0.255511,-2.70647,0.00918409,-0.0188904,0.0113044,-45.676,20.5483,4.4859,0.493855,0.458055,0.651246,0.349531
105,3677.89,24,138.0,33.875,-8.86997,3.24743,1.74367,-8.72531,3.38899,1.94327,-0.0743407,0.0352543,-0.0204849,34.9899,-27.8114,-34.6432,0.0363519,0.580121,-0.259418,-0.771259,36.4375,0.799235,9.84224,-0.749633,0.753389,9.84305,-0.31309,-0.00630543,-0.0116295,-0.00875983,17.2341,-41.7161,-13.0473,0.673863,-0.674659,0.236389,0.186717,34.0625,9.43186,0.155162,-3.16194,9.48482,0.195067,-2.66087,-0.0290077,0.0371054,0.0274838,-45.4182,20.795,5.19568,0.493809,0.458287,0.651063,0.349632
105,3677.9,24,138.0,33.875,-8.9812,3.36245,1.7801,-8.7115,3.31331,1.86792,-0.101612,0.0306734,0.0124349,35.4869,-28.2097,-33.9856,0.0360389,0.58019,-0.259399,-0.771228,36.4375,0.951494,9.76645,-0.746628,0.783645,9.82782,-0.267979,-0.0393165,-0.0145258,0.00676052,17.6186,-41.6014,-13.0453,0.673935,-0.674589,0.236379,0.186723,34.0625,9.54994,0.000649353,-2.92823,9.51506,0.195129,-2.61563,-0.0483151,-0.0278956,-0.032257,-46.0573,20.6973,4.90989,0.493594,0.458249,0.651106,0.349905
105,3677.91,24,138.0,33.875,-8.94394,3.28628,1.78092,-8.69605,3.32833,1.89807,-0.0693908,0.0206035,-0.00919486,35.6145,-27.9689,-34.7747,0.0359125,0.580271,-0.259134,-0.771262,36.4375,0.80008,9.72954,-0.710531,0.798591,9.8127,-0.268113,-0.0147926,0.0363235,0.00821342,17.3562,-40.8174,-13.4745,0.674118,-0.674428,0.236414,0.186605,34.0625,9.39403,0.0794623,-3.16186,9.49981,0.0589453,-2.66051,0.0139709,-0.0281095,0.00177768,-45.2764,20.2738,5.48045,0.493373,0.458466,0.651234,0.349695
105,3677.92,24,138.0,33.875,-8.91177,3.43607,1.58846,-8.72492,3.46447,1.9129,0.00548236,-0.0153195,-0.025253,35.4801,-27.4651,-34.3838,0.0360305,0.580239,-0.25899,-0.771329,36.4375,0.877253,9.65425,-0.670167,0.858654,9.78236,-0.253451,-0.0194905,0.0292865,-0.00663747,18.0002,-40.8412,-13.4699,0.674214,-0.674416,0.236278,0.186471,34.0625,9.47938,0.190003,-2.81436,9.45497,0.195116,-2.61531,0.0126023,0.00853686,0.00448097,-46.31,20.5811,4.90913,0.493526,0.458274,0.651204,0.349788
105,3677.93,24,138.0,33.875,-8.83593,3.47343,1.58947,-8.70973,3.44929,1.94312,-0.0716637,0.0317912,-0.0264109,35.6033,-27.2236,-34.648,0.0358705,0.580418,-0.258392,-0.771402,36.4375,0.955025,9.80488,-0.630527,0.843439,9.79755,-0.298653,-0.0288635,-0.0492558,-0.0144676,17.4925,-41.4675,-13.3289,0.674261,-0.674257,0.236433,0.186678,34.0625,9.51221,0.153082,-2.96816,9.4852,0.195178,-2.57006,0.00376309,-0.000230975,-0.00822833,-45.6865,21.1933,4.76878,0.49351,0.458211,0.651213,0.349875
105,3677.94,24,138.0,33.875,-9.023,3.36174,1.66401,-8.75544,3.43447,1.8979,-0.0160109,0.0508825,-0.0367661,35.354,-27.0863,-34.7795,0.0358769,0.580693,-0.257951,-0.771343,36.4375,1.02897,9.80413,-0.706626,0.843343,9.78245,-0.298696,-0.0492676,-0.0364595,-0.00268712,17.7528,-41.3478,-13.6098,0.67441,-0.674009,0.236587,0.18684,34.0625,9.43566,0.0399717,-3.00683,9.5452,0.104423,-2.58522,0.00436301,-0.00689841,-0.0208931,-45.5568,21.3169,5.19459,0.493288,0.458375,0.651255,0.349895
105,3677.95,24,138.0,33.875,-8.91017,3.47435,1.62684,-8.78496,3.46493,1.94316,-0.0434854,-0.0343369,-0.0164793,35.6073,-27.844,-34.1193,0.0358524,0.580549,-0.257947,-0.771454,36.4375,1.06813,9.76661,-0.667074,0.858024,9.7825,-0.359235,-0.039883,0.00202519,-0.0343832,17.9948,-41.0995,-12.9045,0.674365,-0.674158,0.236285,0.18685,34.0625,9.57876,0.0409507,-3.23691,9.55991,0.104333,-2.66098,0.00775924,-0.00993622,0.00823367,-45.9326,20.6902,4.62667,0.493449,0.458166,0.651262,0.349929
105,3677.96,24,138.0,33.875,-8.79386,3.51208,1.70543,-8.79964,3.51035,1.94308,-0.0613247,-0.0146654,-0.0495011,35.7332,-27.4789,-34.9092,0.0358406,0.580571,-0.257423,-0.771613,36.4375,0.991996,9.80451,-0.668576,0.842785,9.73724,-0.344162,0.0028806,-0.0436213,-0.00724947,17.4925,-41.4675,-13.3289,0.6743,-0.674117,0.236482,0.186981,34.0625,9.58926,0.151965,-2.89018,9.51524,0.164935,-2.57012,-0.011076,0.014955,-0.00576176,-45.5385,20.6735,5.6209,0.493204,0.458456,0.651229,0.349956
105,3677.97,24,138.0,33.875,-9.02006,3.40035,1.7409,-8.78521,3.47999,1.89783,-0.0275134,0.0281429,-0.0652252,35.8654,-27.9825,-35.0376,0.0359474,0.580754,-0.257197,-0.771546,36.4375,0.949107,9.72828,-0.82399,0.827564,9.73731,-0.374295,-0.0520287,-0.0361685,0.0194006,18.411,-42.1457,-13.7417,0.674391,-0.673962,0.23662,0.187037,34.0625,9.47439,0.077382,-2.96808,9.54528,0.180066,-2.57033,-0.0303282,-0.000636953,-0.00832186,-45.8006,20.0374,3.7769,0.493649,0.457791,0.651107,0.350424
105,3677.98,24,138.0,33.875,-8.98334,3.43766,1.70284,-8.83042,3.46523,1.91301,-0.0292952,0.0317412,-0.0250236,35.3579,-27.4587,-34.6461,0.035904,0.580906,-0.257005,-0.771497,36.4375,0.951195,9.65349,-0.746267,0.797931,9.73728,-0.298553,-0.0100765,-0.0388205,0.0312278,17.3535,-40.9466,-13.1918,0.6744,-0.67386,0.236883,0.187039,34.0625,9.43146,0.0792252,-3.16147,9.52988,0.164826,-2.66101,-0.0241962,0.00480532,-0.0106179,-45.7952,20.2975,4.76944,0.493692,0.457637,0.651069,0.350637
105,3677.99,24,138.0,33.875,-8.98869,3.24696,1.58794,-8.86094,3.42015,1.91314,-0.0310519,0.0361303,0.0135326,35.479,-27.4649,-34.2526,0.0357381,0.581014,-0.256997,-0.771426,36.4375,0.914423,9.72918,-0.708458,0.828224,9.81274,-0.343855,-0.0158089,-0.013102,-0.016661,17.5982,-40.5692,-12.7692,0.67429,-0.674019,0.236738,0.187045,34.0625,9.62299,0.0767548,-3.00514,9.51462,0.194999,-2.72157,-0.0113896,0.00304723,0.0177579,-45.5576,21.0577,4.62756,0.493718,0.457634,0.651038,0.350661
105,3678.0,24,138.0,33.875,-9.05999,3.47585,1.66308,-8.89083,3.45057,1.9131,-0.0155371,0.0687743,0.0047619,34.9926,-27.6878,-35.1689,0.0355984,0.581263,-0.25698,-0.77125,36.4375,0.911837,9.6157,-0.785578,0.82748,9.75245,-0.404476,-0.00915257,0.0400303,-0.00933039,17.4948,-41.4674,-13.4699,0.674368,-0.673987,0.236682,0.18695,34.0625,9.47498,0.191288,-2.96878,9.48515,0.225409,-2.58529,0.0144076,0.0377737,0.0086986,-46.1889,20.4438,4.05872,0.494225,0.457068,0.650914,0.350916
105,3678.01,24,138.0,33.875,-9.09617,3.32506,1.74002,-8.89184,3.39011,1.85283,0.0393164,0.0120545,0.00531849,36.103,-27.4984,-34.5161,0.0357127,0.581303,-0.257078,-0.771182,36.4375,0.875265,9.76669,-0.74801,0.827288,9.72226,-0.404562,-0.00108952,-0.0152871,0.00766441,17.8902,-41.6105,-13.8893,0.674383,-0.673878,0.236915,0.186996,34.0625,9.54963,0.152845,-2.96777,9.50011,0.240519,-2.60056,-0.0081035,0.00180074,-0.00981599,-45.6635,20.551,5.6206,0.493895,0.45738,0.650963,0.350882
105,3678.02,24,138.0,33.875,-9.09805,3.4382,1.66263,-8.92109,3.45077,1.89803,0.0329826,0.0372145,0.0118972,35.4812,-27.4652,-34.515,0.0357281,0.58142,-0.257233,-0.771042,36.4375,0.914423,9.72918,-0.708458,0.843529,9.79752,-0.283541,-0.0230062,-0.0209727,0.00347055,17.6232,-41.6012,-13.3272,0.674422,-0.673807,0.236986,0.187019,34.0625,9.54944,0.114876,-2.96754,9.51512,0.210272,-2.60054,0.0420466,-0.00380336,0.0123201,-45.7944,20.5567,5.33647,0.493833,0.457495,0.651033,0.35069
105,3678.03,24,138.0,33.875,-9.20713,3.28866,1.81545,-8.92109,3.45077,1.89803,0.00746132,0.0695153,0.0167846,35.3591,-27.7068,-34.3821,0.035621,0.581638,-0.257457,-0.770808,36.4375,1.10311,9.87868,-0.782967,0.919744,9.84246,-0.16297,-0.0240266,-0.05183,0.0254129,17.3726,-41.5915,-13.752,0.674608,-0.673468,0.237364,0.187091,34.0625,9.54633,0.153809,-3.08358,9.51492,0.164842,-2.6458,-0.00667856,-0.0085981,0.00899596,-45.6713,20.5493,4.91142,0.493796,0.457527,0.65103,0.350706
105,3678.04,24,138.0,33.875,-9.02568,3.36107,1.587,-8.93579,3.46601,1.92822,0.0188575,-0.00266038,0.000398272,35.735,-27.851,-34.5132,0.0357005,0.581595,-0.25764,-0.770775,36.4375,1.01524,9.80102,-1.17152,0.858132,9.82782,-0.389329,-0.0310137,-0.0478005,0.0277441,17.1114,-41.1949,-13.8971,0.674802,-0.673052,0.237861,0.187257,34.0625,9.35901,0.117026,-3.08527,9.49995,0.134607,-2.63049,0.00435272,-0.00982341,0.00743803,-45.6705,20.2905,4.48622,0.493974,0.457283,0.651029,0.350776
105,3678.05,24,138.0,33.875,-9.17443,3.32497,1.66187,-8.87576,3.40519,1.95849,-0.00739503,0.0444864,0.0283165,35.4845,-27.4657,-34.9087,0.035551,0.581724,-0.257567,-0.770709,36.4375,0.986078,9.7279,-0.862039,0.795939,9.70751,-0.60088,-0.00201024,0.0154275,-0.0084249,17.6247,-41.0848,-13.8942,0.674785,-0.673003,0.237999,0.18732,34.0625,9.50682,-0.035476,-3.1214,9.43965,0.0437887,-2.67528,0.0191671,-0.00120604,0.0256758,-45.9065,19.5306,4.76994,0.494283,0.457035,0.650959,0.350792
105,3678.06,24,138.0,33.875,-9.05785,3.40064,1.74034,-8.8455,3.3899,1.98869,0.00916633,0.0399259,0.0342348,35.6133,-27.7208,-35.0387,0.0354512,0.581807,-0.257641,-0.770627,36.4375,1.0326,9.88021,-0.590645,0.872526,9.7826,-0.449998,-0.00429881,-0.0261898,0.0176977,17.366,-41.4626,-13.4708,0.674755,-0.672941,0.238245,0.187339,34.0625,9.46669,0.0796306,-3.2383,9.46996,0.104369,-2.61509,0.0196897,0.0186403,-0.0135236,-45.4049,20.5389,5.90519,0.493945,0.457434,0.651045,0.35059
105,3678.07,24,138.0,33.875,-9.14091,3.28573,1.54704,-8.86044,3.40511,1.98867,-0.0448675,0.0480195,0.0287768,35.4868,-27.9618,-34.3808,0.0352201,0.581897,-0.257778,-0.770523,36.4375,1.08359,9.9959,-0.164167,1.02476,9.84229,-0.208942,-9.22219e-6,-0.0737602,-0.0158012,17.7571,-41.4768,-13.75,0.674702,-0.672858,0.238486,0.187522,34.0625,9.3581,0.155315,-3.12411,9.48496,0.225354,-2.6307,0.00353175,0.018532,-0.00253881,-45.928,20.6912,5.05218,0.493935,0.457421,0.651023,0.350661
105,3678.08,24,138.0,33.875,-9.09404,3.43921,1.77815,-8.87538,3.43541,1.97352,-0.0202677,0.0618063,-0.0022096,36.2357,-27.878,-34.9078,0.0351312,0.582116,-0.257655,-0.770403,36.4375,0.753461,9.53957,-0.981804,0.890375,9.82725,-0.0268234,-0.0343313,-0.00693281,-0.0018372,17.4944,-41.5965,-13.3282,0.674838,-0.672774,0.238387,0.187457,34.0625,9.47018,0.116635,-3.12272,9.51537,0.210347,-2.54,-0.060847,0.0319682,-0.0238512,-45.8076,20.8127,4.62697,0.493912,0.457329,0.65087,0.351097
105,3678.09,24,138.0,33.875,-8.97451,3.36413,1.97263,-8.87488,3.43546,2.03393,-0.0568864,0.0431513,0.0117507,36.1104,-28.3671,-33.9859,0.0349048,0.582186,-0.257907,-0.770276,36.4375,1.09764,9.53876,-0.936845,0.752208,9.58636,-0.238265,-0.060556,-0.0131162,0.014602,16.9804,-41.9647,-13.0476,0.674995,-0.672599,0.238409,0.187493,34.0625,9.43307,-0.035323,-3.08357,9.56012,0.180014,-2.61582,-0.0118654,-0.0115819,0.016044,-45.7913,20.0394,4.62792,0.494037,0.457189,0.650808,0.35122
105,3678.1,24,138.0,33.875,-8.90295,3.36254,1.85825,-8.78484,3.37442,2.04907,-0.0414984,0.07677,0.00802334,35.4862,-27.8378,-34.5128,0.0347485,0.582406,-0.257895,-0.770121,36.4375,1.28746,9.68852,-0.972614,0.961509,9.54084,-0.405899,0.011429,-0.0805736,-0.00405285,16.9885,-41.5772,-13.8958,0.674972,-0.67236,0.238934,0.187765,34.0625,9.51111,0.153403,-3.00676,9.54535,0.210335,-2.55529,0.0140035,0.000224456,-0.00740937,-45.917,20.1757,5.05282,0.494038,0.45712,0.650826,0.351274
105,3678.11,24,138.0,33.875,-8.79466,3.2089,1.74493,-8.75483,3.32892,2.07934,-0.0540005,0.0815202,0.00634221,36.0951,-27.0015,-34.3879,0.0345867,0.582691,-0.257381,-0.770085,36.4375,1.2185,9.84093,-0.742033,1.083,9.75192,-0.436245,0.0254994,-0.0177601,0.0105779,17.8855,-41.6106,-13.6074,0.674814,-0.672509,0.239074,0.187619,34.0625,9.47569,0.115029,-2.92971,9.54466,0.195005,-2.72173,0.0289551,-0.0116878,-0.00748174,-45.9135,20.306,5.62001,0.493814,0.457285,0.651002,0.351048
105,3678.12,24,138.0,33.875,-9.05196,3.2885,1.93324,-8.74014,3.2986,2.06429,-0.0410027,0.0730835,0.0254584,35.4824,-27.7133,-34.2511,0.0344109,0.58286,-0.25745,-0.769941,36.4375,1.19296,9.8439,-0.316575,1.07028,9.93279,-0.239179,-0.00457596,-0.00485206,-0.0178284,17.1193,-41.711,-13.8941,0.674957,-0.672314,0.239211,0.187632,34.0625,9.39564,-0.0350859,-3.08395,9.48481,0.149692,-2.66072,0.003924,-0.0235693,0.0120344,-45.4131,20.4077,4.91249,0.493746,0.457344,0.651057,0.350965
105,3678.13,24,138.0,33.875,-9.17469,3.28703,1.66199,-8.81536,3.37459,2.0038,-0.0710408,0.0667503,-0.00271312,35.8503,-27.1127,-34.6492,0.0341918,0.583122,-0.25691,-0.769933,36.4375,0.882725,9.99417,-0.516289,0.920235,9.94816,-0.192891,-0.0271612,0.0177923,-0.00664136,16.8502,-40.7982,-14.0422,0.675264,-0.671934,0.23938,0.187671,34.0625,9.65641,0.15374,-3.15963,9.49989,0.134589,-2.64562,0.0186088,-0.0421722,-0.00543163,-45.7862,20.17,5.33695,0.493544,0.45745,0.651229,0.350791
105,3678.14,24,138.0,33.875,-9.02246,3.24826,1.70289,-8.87539,3.3147,2.09459,-0.035101,0.0498904,-0.000281206,35.6039,-27.3477,-34.516,0.0341636,0.583263,-0.256703,-0.769897,36.4375,0.771514,9.88234,-0.401777,0.694891,9.96371,-0.161261,-0.0357978,0.0285648,-0.0122228,17.6353,-41.4718,-14.1739,0.675483,-0.671714,0.239336,0.187729,34.0625,9.55073,0.152524,-2.92917,9.50003,0.195126,-2.61555,0.0332089,0.0113216,0.0281935,-45.1725,21.1685,5.05428,0.493514,0.457664,0.651175,0.350654
105,3678.15,24,138.0,33.875,-9.20847,3.28833,1.77695,-8.95125,3.30011,2.0494,-0.0599461,0.0507877,-0.0423566,35.605,-27.5957,-34.252,0.0342441,0.58345,-0.256479,-0.769826,36.4375,0.611049,9.881,-0.675727,0.618562,9.85834,-0.236669,-0.0660263,0.0342435,-0.0123418,16.8659,-41.8305,-14.0362,0.675884,-0.671268,0.239346,0.187868,34.0625,9.50651,0.11672,-3.16094,9.53002,0.225363,-2.63094,0.0705354,0.0327504,0.0292804,-46.0448,20.1821,5.05236,0.493849,0.457454,0.651144,0.350515
105,3678.16,24,138.0,33.8125,-9.05223,3.43992,1.89424,-8.95062,3.33035,2.09464,-0.0389788,0.021359,-0.0313344,35.982,-27.7401,-34.5144,0.0343689,0.583503,-0.256329,-0.76983,36.4375,0.912335,9.80397,-0.786181,0.662865,9.8282,-0.342812,0.00412709,0.0337226,-0.0187682,16.86,-41.4434,-14.0385,0.676,-0.671095,0.239432,0.187956,34.0625,9.47109,0.0783457,-3.08388,9.50008,0.134644,-2.60022,-0.05043,0.00986123,-0.0059131,-45.2753,20.1446,5.33877,0.493611,0.457706,0.651056,0.350684
105,3678.17,24,138.0,33.8125,-9.06025,3.24855,1.70233,-8.93529,3.36044,2.09455,-0.0390714,0.0376991,-0.0750948,35.4895,-27.8382,-34.9065,0.034626,0.583669,-0.25609,-0.769773,36.4375,0.990852,9.80425,-0.707317,0.767686,9.78273,-0.373802,-0.037372,0.00121413,0.0000825014,16.7371,-41.8257,-14.0371,0.676246,-0.670731,0.239655,0.18809,34.0625,9.39714,0.0405301,-3.04582,9.48473,0.104298,-2.67571,-0.0139779,0.0305177,-0.00404797,-45.0397,20.7749,4.77154,0.493635,0.457693,0.650984,0.350801
105,3678.18,24,138.0,33.8125,-9.08949,3.32673,1.93255,-8.95049,3.34545,2.0946,-0.0367017,0.0165386,-0.0556926,36.481,-27.6429,-34.9097,0.0348338,0.583755,-0.255706,-0.769826,36.4375,1.02723,9.57795,-0.744644,0.797373,9.69206,-0.344019,-0.0257162,0.0602614,0.00043083,17.5054,-41.8544,-13.7496,0.676342,-0.670754,0.239462,0.187908,34.0625,9.3603,0.154673,-3.0469,9.51497,0.119485,-2.63052,-0.0156748,-0.0200694,-0.0273713,-45.66,20.1633,5.19557,0.493443,0.457713,0.651074,0.350879
105,3678.19,24,138.0,33.8125,-9.19617,3.32928,2.12338,-8.96468,3.39092,2.15492,-0.017378,0.027302,-0.0718047,35.7305,-27.6025,-34.3835,0.03514,0.583862,-0.255581,-0.769772,36.4375,0.991298,9.54093,-0.667732,0.842576,9.66171,-0.299042,-0.018775,0.0136352,-0.00346397,17.3773,-41.5914,-14.034,0.676446,-0.670629,0.239518,0.187907,34.0625,9.58836,0.190255,-2.92902,9.51501,0.270735,-2.631,0.0407565,-0.0189992,0.0295045,-45.5323,20.1569,5.19602,0.493446,0.457776,0.651135,0.35068
105,3678.2,24,138.0,33.8125,-9.16747,3.36458,1.85428,-8.99381,3.42142,2.24549,0.00181301,0.00044557,-0.0573803,35.4767,-27.2167,-34.3853,0.0354701,0.583842,-0.255424,-0.769824,36.4375,0.912383,9.39004,-0.746113,0.841538,9.54103,-0.344724,-0.0119341,0.0200558,-0.0316325,17.6048,-40.6981,-13.0505,0.676293,-0.670932,0.239165,0.187826,34.0625,9.51221,0.153082,-2.96816,9.49992,0.240463,-2.64596,0.0217865,-0.0220684,-0.0138999,-45.6682,20.55,5.19509,0.493292,0.457797,0.65127,0.350617
105,3678.21,24,138.0,33.8125,-9.08628,3.21392,2.04844,-8.94973,3.37571,2.15494,0.0280956,0.00868576,-0.0484151,35.6057,-27.9677,-33.7249,0.0358468,0.583802,-0.255896,-0.76968,36.4375,0.873224,9.42755,-0.785666,0.765012,9.39036,-0.40515,-0.0210232,0.0268199,-0.0064767,17.2456,-40.9413,-14.4616,0.676465,-0.670657,0.239364,0.187934,34.0625,9.47529,0.0390922,-2.92924,9.49978,0.195051,-2.67608,-0.0525213,-0.00513426,0.026238,-45.4127,21.0551,6.18823,0.492673,0.45867,0.651163,0.350545
105,3678.22,24,138.0,33.8125,-9.20072,3.2524,2.00811,-8.95011,3.34549,2.1399,0.0555622,-0.00976775,-0.0377893,35.6061,-27.5959,-34.3833,0.0363022,0.583711,-0.256126,-0.769651,36.4375,0.918301,9.46664,-0.55265,0.750714,9.45068,-0.344439,0.0183492,-0.0264671,-0.00321075,17.7512,-41.0897,-13.7523,0.676279,-0.670799,0.239449,0.187988,34.0625,9.50721,0.0404612,-3.12187,9.49994,0.0741074,-2.63029,0.022142,-0.0114621,-0.00907303,-45.2932,20.9175,5.19598,0.492549,0.458768,0.651239,0.350451
105,3678.23,24,138.0,33.8125,-9.24198,3.32756,1.89177,-8.93491,3.36048,2.13986,0.0525745,0.0310297,-0.0423605,35.605,-27.3478,-34.6472,0.0366826,0.583809,-0.256152,-0.76955,36.4375,1.07021,9.69183,-0.589351,0.811623,9.51083,-0.284181,-0.0168987,-0.0427215,0.0222453,17.4939,-40.951,-13.8958,0.676294,-0.670665,0.23972,0.188066,34.0625,9.47128,0.116314,-3.08412,9.45476,0.119435,-2.66047,-0.0249098,-0.0200277,0.0182937,-46.1702,19.93,4.76855,0.492723,0.458568,0.65115,0.350633
105,3678.24,24,138.0,33.8125,-9.0549,3.24989,1.85635,-8.93492,3.33031,2.17012,0.0393317,0.0274429,-0.0426492,35.6072,-27.596,-34.5145,0.0370691,0.583866,-0.256274,-0.769448,36.4375,1.10584,9.61588,-0.665901,0.917855,9.61618,-0.239179,0.0023669,-0.015214,0.00488531,17.7551,-41.3477,-13.7508,0.676227,-0.670744,0.239751,0.187991,34.0625,9.43555,0.230136,-3.0466,9.49992,0.225338,-2.64591,0.0187238,0.0146657,-0.008837,-45.9268,20.562,4.9105,0.492849,0.458343,0.651168,0.350717
105,3678.25,24,138.0,33.8125,-8.93485,3.44005,2.01146,-8.87425,3.40535,2.1397,0.0995557,-0.0171353,-0.0299322,35.7294,-27.6024,-34.2522,0.0375752,0.58373,-0.25669,-0.769388,36.4375,1.21954,9.80353,-0.703172,1.08453,9.75156,-0.179341,-0.00337326,0.00209257,0.000613103,17.2461,-41.5867,-13.894,0.676324,-0.67065,0.239833,0.187869,34.0625,9.73606,0.227918,-3.00492,9.51521,0.301041,-2.5857,-0.0190943,-0.021446,-0.0163648,-45.9221,20.563,5.33601,0.492594,0.458455,0.651216,0.350839
105,3678.26,24,138.0,33.8125,-8.86142,3.51468,1.93533,-8.75268,3.48003,2.18471,0.0603093,0.0162682,-0.00680527,35.7394,-28.0996,-34.6429,0.0377985,0.58367,-0.257157,-0.769266,36.4375,1.2268,9.9557,-0.471209,1.16042,9.87215,-0.194561,0.00767256,-0.0247419,-0.00776433,17.3562,-40.8174,-13.4745,0.676256,-0.670734,0.239865,0.187775,34.0625,9.51021,0.191693,-3.0456,9.54488,0.331186,-2.67676,0.0831158,-0.0544478,0.0466137,-45.6768,20.807,4.9111,0.492669,0.458428,0.651403,0.350421
105,3678.27,24,138.0,33.8125,-8.71935,3.35974,1.70706,-8.66288,3.47931,2.10912,0.0167117,0.047173,-0.010555,35.8649,-28.1064,-34.7744,0.0378288,0.583763,-0.257385,-0.769118,36.4375,1.18431,10.0301,-0.627105,1.13072,9.93259,-0.194207,-0.00238976,-0.00625497,0.00698107,16.9693,-40.9323,-13.3356,0.676276,-0.670742,0.23991,0.187614,34.0625,9.47478,0.153319,-2.96854,9.57542,0.270841,-2.55565,0.000958207,-0.0393371,0.0449638,-45.8045,20.8134,4.91064,0.492639,0.45857,0.651365,0.350348
105,3678.28,24,138.0,33.8125,-8.86757,3.39952,1.78168,-8.61894,3.35814,2.07914,-0.0301465,0.00382642,-0.00588152,35.3597,-27.8308,-34.2501,0.0378273,0.583683,-0.257493,-0.769142,36.4375,0.881183,9.84329,-0.554547,1.04094,9.99314,-0.178376,0.0142879,0.00137443,-0.0367387,17.3726,-41.5915,-13.752,0.676229,-0.670824,0.239823,0.187602,34.0625,9.39784,-0.0357284,-3.00675,9.50009,0.180019,-2.60036,-0.0408964,0.0101167,0.0461051,-45.4026,20.2805,5.62183,0.492463,0.459021,0.651175,0.350359
105,3678.29,24,138.0,33.8125,-8.8271,3.21054,1.89838,-8.66415,3.34338,2.09431,-0.0846832,0.0197215,-0.0311486,35.982,-27.7401,-34.5144,0.0377419,0.583731,-0.257142,-0.769228,36.4375,0.995925,9.99355,-0.552957,0.95069,9.97823,-0.162762,0.0507724,-0.0344043,-0.0113908,17.6342,-41.8591,-13.7487,0.676,-0.671026,0.239914,0.187588,34.0625,9.50321,0.117683,-3.27675,9.53012,0.119526,-2.60033,0.016528,-0.00502139,0.0390246,-45.676,21.0662,5.47813,0.49236,0.459363,0.651104,0.350186
105,3678.3,24,138.0,33.8125,-8.86997,3.24743,1.74367,-8.63502,3.26762,2.04915,-0.124071,-0.0236794,-0.0631456,36.3511,-27.3876,-34.6485,0.0377407,0.583691,-0.25633,-0.769529,36.4375,0.685935,9.8052,-0.712844,0.75433,9.94863,-0.267451,-0.00300518,-0.0116171,0.0256236,17.3765,-41.8496,-13.7506,0.675994,-0.670985,0.24007,0.187557,34.0625,9.46908,0.116957,-3.16132,9.57474,0.0891558,-2.70641,-0.0411618,-0.0240694,0.0402697,-45.5436,20.5429,4.91187,0.492356,0.459487,0.651002,0.350219
105,3678.31,24,138.0,33.8125,-8.79038,3.24785,1.86032,-8.65009,3.20737,2.1097,-0.0762084,0.00715312,-0.0673743,35.8543,-27.4851,-34.5157,0.0379073,0.58373,-0.255874,-0.769643,36.4375,0.837549,9.91743,-0.749183,0.753592,9.90346,-0.343141,0.0590597,-0.00404963,-0.0114712,16.983,-41.061,-14.0398,0.675859,-0.671003,0.240331,0.187647,34.0625,9.47348,0.115672,-3.00691,9.57519,0.149786,-2.60066,-0.010272,-0.0409584,0.0102585,-45.4174,20.5362,4.77049,0.492344,0.459429,0.651032,0.350257
105,3678.32,24,138.0,33.8125,-8.83057,3.09605,1.82174,-8.68049,3.20757,2.07953,-0.0636299,-0.000153448,-0.0674459,36.3578,-27.6365,-35.0407,0.0381059,0.58376,-0.255376,-0.769777,36.4375,0.844212,9.84367,-0.516497,0.723792,9.93369,-0.327761,0.0268894,-0.0326624,-0.0178127,17.3574,-41.2047,-13.1903,0.675557,-0.671286,0.240304,0.187756,34.0625,9.43846,0.153235,-2.93032,9.52988,0.149702,-2.66096,-0.0207856,-0.0235162,0.0103944,-45.2901,20.9182,5.47966,0.492039,0.459788,0.651029,0.350219
105,3678.33,24,138.0,33.8125,-8.94394,3.09692,1.82004,-8.74178,3.14754,2.01932,-0.0496495,-0.0526835,-0.100712,35.9864,-27.7407,-35.0393,0.038574,0.583626,-0.254953,-0.769994,36.4375,0.872332,9.95418,-0.864836,0.723696,9.9186,-0.327804,-0.0027462,-0.0511215,-0.00262334,17.7879,-42.1214,-15.0152,0.675611,-0.670947,0.240804,0.18813,34.0625,9.50781,0.154367,-3.12257,9.54471,0.164774,-2.7065,-0.0278666,-0.00537512,0.0113336,-45.4018,20.0217,5.19664,0.492021,0.459803,0.650966,0.350342
105,3678.34,24,138.0,33.8125,-8.91203,3.01941,1.66683,-8.72645,3.20781,1.98897,0.00175052,-0.0559214,-0.129391,36.2256,-27.1329,-34.9123,0.0392352,0.583546,-0.254398,-0.770205,36.4375,0.877851,9.88017,-0.67089,0.753677,9.88832,-0.31296,0.00132356,-0.0798186,-0.00220404,16.8514,-41.1854,-13.758,0.675547,-0.670773,0.241208,0.188463,34.0625,9.39333,0.155721,-3.20093,9.52962,0.119377,-2.72141,0.0134024,0.031498,0.0251796,-45.2827,20.7903,5.90533,0.491869,0.460192,0.650895,0.350177
105,3678.35,24,138.0,33.8125,-8.94501,3.32389,1.74229,-8.72759,3.14734,1.9136,0.0465555,-0.0607865,-0.122278,36.5976,-27.4006,-34.3865,0.040026,0.583422,-0.254254,-0.770306,36.4375,0.872033,9.84122,-0.864474,0.81356,9.85803,-0.328522,0.00138751,-0.0439532,0.00663287,17.773,-41.6054,-14.5952,0.675536,-0.670597,0.241574,0.188662,34.0625,9.39863,0.116146,-3.00768,9.48455,0.104243,-2.72112,-0.0440311,0.0198272,0.0327964,-46.0358,20.0546,5.61987,0.491864,0.46037,0.650717,0.35028
105,3678.36,24,138.0,33.8125,-8.91204,3.20877,1.62771,-8.69719,3.2075,1.88324,0.111797,-0.0732829,-0.131857,35.7271,-27.3542,-34.385,0.0410117,0.583248,-0.254418,-0.770332,36.4375,0.989808,9.84164,-0.746179,0.828517,9.87313,-0.358794,-0.0320845,-0.106934,0.031957,16.976,-41.0612,-13.6168,0.675505,-0.670364,0.242075,0.188954,34.0625,9.43967,-0.0372504,-2.85195,9.45463,0.104273,-2.69069,0.0452453,0.0156496,0.0180251,-45.785,20.0408,5.19527,0.492154,0.46013,0.650707,0.350209
105,3678.37,24,138.0,33.8125,-8.94742,3.36116,1.66515,-8.74139,3.34373,1.86788,0.103986,-0.0516609,-0.131261,35.9703,-27.1188,-34.1244,0.0418494,0.583179,-0.254487,-0.770316,36.4375,0.841626,9.73019,-0.593617,0.812912,9.81283,-0.3891,-0.0633916,-0.106865,0.0263026,17.2449,-41.1995,-14.1782,0.675615,-0.669942,0.242622,0.189357,34.0625,9.46779,0.0793093,-3.19969,9.46948,0.179846,-2.73642,0.0341146,0.0150905,0.00538678,-45.4053,20.4094,5.62167,0.492123,0.460189,0.650765,0.350066
105,3678.38,24,138.0,33.8125,-8.83807,3.35927,1.55133,-8.77077,3.41947,1.88285,0.129623,-0.0543371,-0.123492,35.7343,-27.4791,-35.0404,0.0426992,0.583086,-0.254653,-0.770285,36.4375,0.803212,9.61735,-0.593946,0.7819,9.73754,-0.464694,-0.02842,-0.0536428,0.0323282,16.7191,-40.7935,-13.9021,0.675672,-0.669665,0.243078,0.18955,34.0625,9.39683,0.192726,-3.08536,9.49986,0.25557,-2.66114,0.0164717,0.0208416,0.0266632,-45.5323,20.1569,5.19602,0.492297,0.4601,0.650676,0.350104
105,3678.39,24,138.0,33.8125,-8.8689,3.39918,1.74317,-8.77077,3.40438,1.89798,0.117725,-0.054225,-0.111945,36.4705,-27.2696,-34.2558,0.0434685,0.58298,-0.254802,-0.770273,36.4375,0.951295,9.69115,-0.746387,0.857371,9.72219,-0.404744,-0.0355876,-0.0648861,0.0217742,17.115,-41.582,-13.7539,0.67565,-0.66953,0.243376,0.189724,34.0625,9.47459,0.115351,-2.96831,9.48518,0.346409,-2.58568,-0.0059935,0.0110804,0.0265126,-45.1662,20.652,4.62941,0.49246,0.45996,0.650574,0.350248
105,3678.4,24,138.0,33.8125,-8.95036,3.32255,1.58826,-8.71137,3.3435,1.85275,0.209757,-0.0605401,-0.0967419,36.2284,-27.5052,-34.6475,0.0444754,0.582812,-0.255362,-0.770157,36.4375,1.145,9.57837,-0.626349,0.88698,9.66178,-0.420211,-0.066186,-0.130182,0.0758756,16.6024,-41.4339,-14.0403,0.675819,-0.668973,0.244204,0.190022,34.0625,9.50391,0.0414249,-3.23768,9.50003,0.195126,-2.61555,0.0491027,0.00402581,0.00847342,-45.8018,20.6845,4.9108,0.492677,0.459712,0.650618,0.350187
105,3678.41,24,138.0,33.8125,-8.91525,3.51094,1.47269,-8.77152,3.41939,1.79224,0.166048,-0.0796003,-0.0628329,35.5983,-27.099,-34.255,0.045197,0.58256,-0.255811,-0.770157,36.4375,1.25382,9.65202,-0.818221,0.946959,9.64657,-0.43573,0.0117937,-0.066464,0.0233501,17.3893,-41.462,-14.8807,0.675765,-0.668752,0.244799,0.190225,34.0625,9.40205,-0.0749819,-2.8521,9.51459,0.0891242,-2.72123,0.0392545,0.0150241,0.0156403,-45.7893,20.1693,5.05327,0.492948,0.459473,0.650618,0.350118
105,3678.42,24,138.0,33.8125,-8.83941,3.5483,1.4737,-8.78684,3.44965,1.73179,0.170975,-0.0702084,-0.0290415,36.1014,-27.6221,-34.1217,0.0457638,0.582298,-0.256551,-0.770076,36.4375,1.25974,9.72863,-0.624758,0.962282,9.6767,-0.420622,-0.0404308,-0.0458425,0.0480938,16.6028,-41.3048,-14.182,0.675932,-0.668388,0.245285,0.190285,34.0625,9.47159,-0.0358813,-3.04458,9.52964,-0.00160369,-2.70588,-0.025609,0.0362435,0.0337866,-45.81,21.0712,4.91032,0.493112,0.459518,0.650425,0.350188
105,3678.43,24,138.0,33.8125,-8.91204,3.58749,1.54945,-8.81647,3.52536,1.71655,0.189773,-0.0555234,-0.0241439,35.605,-27.5957,-34.252,0.046322,0.582086,-0.257353,-0.769935,36.4375,1.06658,9.61574,-0.705333,0.947505,9.66156,-0.360126,0.00394815,-0.0940536,0.0451851,16.723,-41.0516,-13.9006,0.675821,-0.668259,0.245842,0.190415,34.0625,9.39223,0.156042,-3.23953,9.4695,0.0286146,-2.72079,0.0397237,0.0564085,0.0120909,-45.9256,20.9507,5.76105,0.493145,0.459685,0.650379,0.350006
105,3678.44,24,138.0,33.8125,-8.98976,3.47392,1.51018,-8.83117,3.51042,1.777,0.130887,-0.0458408,0.000467482,36.1063,-27.7468,-34.5146,0.0466196,0.58189,-0.257916,-0.769877,36.4375,1.17769,9.68991,-0.819724,0.962648,9.69173,-0.375243,-0.0111708,-0.0107029,0.0555357,16.8577,-41.4434,-13.8975,0.675841,-0.668194,0.246103,0.190234,34.0625,9.43406,0.15452,-3.08474,9.48468,0.13453,-2.69095,0.0196076,-0.0134752,0.0200477,-45.8069,21.0719,5.194,0.493103,0.459784,0.650419,0.349862
105,3678.45,24,138.0,33.8125,-9.02942,3.398,1.47136,-8.84675,3.46521,1.76202,0.112408,-0.0202701,0.0294619,35.7311,-27.7266,-34.2515,0.0467509,0.581755,-0.258544,-0.76976,36.4375,0.999504,9.61805,-0.396788,0.9178,9.70688,-0.344703,0.00465981,-0.0612353,0.0442682,16.989,-42.2227,-13.3281,0.675569,-0.668399,0.246317,0.190203,34.0625,9.39753,0.116467,-3.04628,9.46965,0.119401,-2.69082,0.00993154,0.00822574,-0.0309772,-45.5455,20.9309,5.47874,0.492912,0.459855,0.65051,0.349869
105,3678.46,24,138.0,33.8125,-9.07256,3.39695,1.31677,-8.8028,3.38931,1.68663,0.0736428,0.0133728,0.0308773,35.8493,-27.3605,-34.1227,0.0467416,0.581787,-0.258873,-0.769625,36.4375,1.10584,9.61588,-0.665901,0.918148,9.67657,-0.254118,-0.0317862,-0.117273,0.122381,17.1142,-41.8402,-13.4704,0.675474,-0.668301,0.246919,0.190104,34.0625,9.43118,-0.186876,-3.12124,9.46965,0.104276,-2.69077,0.0144768,0.0134001,0.00925794,-45.6705,20.2905,4.48622,0.493284,0.459423,0.650474,0.349978
105,3678.47,24,138.0,33.8125,-8.80963,3.16727,1.32148,-8.78811,3.38916,1.64132,0.0625859,0.0249852,0.0344501,36.224,-27.5046,-34.1226,0.046663,0.581871,-0.259173,-0.769466,36.4375,1.13565,9.50099,-0.936034,0.901715,9.57112,-0.375225,-0.0193405,-0.0915681,0.0766551,16.864,-41.7014,-14.037,0.675445,-0.668088,0.247526,0.190165,34.0625,9.43377,-0.111581,-3.0445,9.45452,-0.0469949,-2.70534,-0.0171832,-0.0157352,-0.00842886,-45.4229,20.794,4.77017,0.493281,0.459334,0.650527,0.350002
105,3678.48,24,138.0,33.8125,-8.95999,3.0929,1.35797,-8.72909,3.23771,1.64159,0.0512702,0.0260355,0.0192955,35.6072,-27.596,-34.5145,0.0466886,0.581972,-0.259391,-0.769315,36.4375,1.12879,9.49944,-1.16848,0.990884,9.57117,-0.557115,0.0261384,-0.0498531,0.0848399,16.8647,-41.4432,-14.3204,0.675332,-0.667996,0.248183,0.190037,34.0625,9.47269,-0.0362026,-3.00598,9.51461,-0.0469818,-2.70566,0.0174322,-0.024423,-0.0202353,-45.9182,20.3049,5.19449,0.493264,0.459204,0.650674,0.349923
105,3678.49,24,138.0,33.8125,-8.87879,3.1316,1.513,-8.68515,3.14673,1.58134,0.0578636,0.0839095,0.0212499,36.1041,-27.4986,-34.6473,0.0466796,0.582318,-0.259512,-0.769012,36.4375,1.32433,9.65049,-1.01054,1.00503,9.57135,-0.708325,0.0359264,-0.0840723,0.0766002,16.8538,-41.1853,-13.899,0.675023,-0.668065,0.248857,0.190009,34.0625,9.54594,0.0778714,-3.08311,9.52978,0.0286833,-2.67571,0.0408673,0.0161038,-0.0268832,-45.8069,21.0719,5.194,0.493281,0.459094,0.650774,0.349858
105,3678.5,24,138.0,33.8125,-8.88093,3.2068,1.43574,-8.77494,3.14744,1.65693,0.0176846,0.0373585,0.0267428,35.9854,-27.9885,-34.5129,0.0466431,0.582437,-0.259727,-0.768852,36.4375,1.16484,9.73339,0.0317632,1.09799,9.61586,-0.300717,0.0251512,-0.111902,0.0737043,16.9849,-41.19,-14.039,0.674839,-0.668017,0.249502,0.189983,34.0625,9.50832,0.04014,-3.08326,9.51471,0.0891613,-2.69096,0.0116533,-0.0207125,0.00184095,-45.1581,20.7833,5.62211,0.492977,0.459435,0.650865,0.349668
105,3678.51,24,138.0,33.8125,-8.8828,3.13059,1.39748,-8.72834,3.26797,1.70193,0.0481673,0.0433523,0.0724566,35.9881,-28.1128,-34.6434,0.0464485,0.582504,-0.260192,-0.768656,36.4375,1.25954,9.65332,-0.624517,1.04174,9.736,0.228912,0.003841,-0.0907196,0.0774937,17.0037,-41.9641,-14.4575,0.674954,-0.667739,0.250022,0.189871,34.0625,9.58816,0.152287,-2.92878,9.54489,0.13458,-2.66099,0.019427,-0.0162591,-0.0107006,-46.0467,20.5701,5.61923,0.492812,0.459526,0.650982,0.349565
105,3678.52,24,138.0,33.8125,-8.80428,3.16862,1.47551,-8.77444,3.17767,1.68707,0.0868009,0.0353286,0.0601682,35.605,-27.5957,-34.252,0.0464771,0.582564,-0.260643,-0.768456,36.4375,1.36702,9.65141,-0.854889,1.17503,9.70595,-0.0893442,0.0491985,-0.087409,0.114804,16.7527,-42.0835,-14.7406,0.674951,-0.667482,0.250896,0.189631,34.0625,9.36451,0.115419,-2.89226,9.51505,0.164879,-2.61553,0.0326492,0.0499614,-0.00531839,-45.5385,20.6735,5.6209,0.492829,0.459582,0.650932,0.349558
105,3678.53,24,138.0,33.8125,-8.83806,3.16991,1.59046,-8.71441,3.11686,1.71734,0.112489,0.0317696,0.066238,35.8627,-28.1061,-34.5119,0.0466089,0.582571,-0.261304,-0.768218,36.4375,1.32712,9.83927,-0.933665,1.32396,9.81177,-0.452638,0.0432769,-0.0874907,0.0831137,16.4611,-40.9131,-13.7622,0.674723,-0.667525,0.251547,0.18943,34.0625,9.47258,0.153962,-3.04575,9.52996,0.24047,-2.64612,0.0394529,0.0250938,-0.0268026,-45.2869,20.4009,4.77111,0.493041,0.459173,0.650995,0.34968
105,3678.54,24,138.0,33.8125,-8.75981,3.17,1.6686,-8.72796,3.22274,1.79263,0.135967,0.0450723,0.0485909,35.7299,-27.4785,-34.5155,0.0467914,0.582674,-0.261708,-0.767991,36.4375,1.37001,9.9155,-0.778252,1.29317,9.85735,-0.618558,0.0313433,-0.0910348,0.0932311,16.9924,-41.8353,-13.8943,0.674441,-0.667624,0.252187,0.189232,34.0625,9.51021,0.191693,-3.0456,9.49972,0.195033,-2.69122,-0.0279923,-0.00652669,-0.0186115,-45.292,20.7883,5.0543,0.492864,0.459211,0.651022,0.349831
105,3678.55,24,138.0,33.8125,-8.99136,3.05693,1.55006,-8.68275,3.20733,1.80772,0.151364,0.0579494,0.0207974,35.8605,-28.1058,-34.2495,0.0471453,0.582808,-0.262393,-0.767634,36.4375,1.1863,9.91765,-0.549261,1.18944,9.91768,-0.421293,0.0131024,-0.0514538,0.0474245,15.9521,-41.1521,-13.9054,0.674408,-0.667491,0.252673,0.189175,34.0625,9.39553,0.155078,-3.12372,9.5299,0.225326,-2.66121,0.00514194,0.0196028,-0.0458501,-46.1881,20.703,4.62576,0.493033,0.45872,0.651084,0.350118
105,3678.56,24,138.0,33.8125,-9.11061,3.16994,1.35545,-8.84903,3.23865,1.71721,0.196446,0.0264676,0.0329039,35.6156,-28.217,-34.5108,0.0476163,0.582824,-0.263243,-0.767302,36.4375,1.18555,10.068,-0.588484,1.08494,9.87238,-0.239443,0.0159833,-0.0432252,0.0810347,16.0891,-41.5439,-14.0433,0.674438,-0.667318,0.253191,0.188982,34.0625,9.50981,0.115756,-3.04513,9.4696,0.149633,-2.70605,0.0319327,-0.0226572,-0.0335721,-45.792,20.2982,5.05311,0.493018,0.458466,0.651289,0.350092
105,3678.57,24,138.0,33.8125,-9.14653,3.05709,1.43227,-8.87917,3.23887,1.71724,0.195416,-0.00142953,0.0227983,36.4862,-28.2634,-34.5122,0.0481661,0.582761,-0.263926,-0.767081,36.4375,1.07111,10.0307,-0.590437,0.949652,9.85755,-0.208444,0.0221573,-0.059043,0.0917207,16.3537,-41.5532,-14.4644,0.674454,-0.66708,0.253849,0.188881,34.0625,9.47588,0.152998,-2.92994,9.46999,0.210244,-2.61543,0.0212308,-0.0109151,-0.0350657,-45.6674,20.2912,4.7699,0.493085,0.458118,0.651416,0.350217
105,3678.58,24,138.0,33.8125,-9.25375,3.17312,1.58422,-8.92539,3.19382,1.64189,0.196063,0.0392493,0.0416675,35.7346,-28.4708,-33.4596,0.0486249,0.582798,-0.265046,-0.766638,36.4375,1.03041,9.91735,-0.668247,0.919683,9.91805,-0.253425,0.0160458,-0.0322411,0.0672882,16.862,-41.5724,-14.0377,0.674335,-0.667168,0.254084,0.188684,34.0625,9.47219,0.0780244,-3.04528,9.53022,0.255669,-2.58563,-0.00246436,0.018611,-0.0143699,-45.6791,21.0655,5.19445,0.492962,0.458199,0.651378,0.350354
105,3678.59,24,138.0,33.8125,-9.33173,3.21098,1.50595,-9.00049,3.20948,1.65703,0.211688,0.0103907,-0.0434554,35.6129,-28.3406,-33.9851,0.0494979,0.582854,-0.265761,-0.766291,36.4375,1.06748,9.95462,-0.706418,0.888683,9.87299,-0.359157,0.0428672,-0.0666317,0.0677901,16.4897,-42.3323,-14.177,0.674113,-0.667201,0.254604,0.188658,34.0625,9.54724,0.115519,-3.04474,9.54511,0.24051,-2.61593,-0.0209206,0.00280075,-0.0334725,-45.6651,20.5506,5.47876,0.492683,0.458323,0.651417,0.350514
105,3678.6,24,138.0,33.8125,-9.25562,3.28627,1.50684,-9.09091,3.2554,1.61172,0.244587,0.00975268,-0.02717,35.9764,-27.4915,-34.2534,0.0503526,0.582954,-0.266151,-0.766024,36.4375,1.17715,9.91558,-0.859188,1.00939,9.91798,-0.344643,0.0171177,-0.0713402,0.0219989,16.0989,-42.1891,-14.0395,0.673979,-0.667145,0.255,0.1888,34.0625,9.51241,0.191051,-2.96839,9.51487,0.195073,-2.66103,-0.0450092,-0.005909,-0.0178628,-45.7916,20.4278,5.33663,0.492445,0.458449,0.651405,0.350704
105,3678.61,24,138.0,33.8125,-9.25696,3.28594,1.46833,-9.07584,3.21003,1.65711,0.296006,-0.0263598,-0.0351846,36.0993,-27.8698,-33.464,0.0515023,0.582856,-0.266993,-0.765729,36.4375,1.44604,9.83995,-0.776629,1.02368,9.84254,-0.390286,-0.0192681,-0.0565583,0.0523834,16.9804,-41.9647,-13.0476,0.673678,-0.6675,0.254973,0.188652,34.0625,9.62248,0.190982,-3.04444,9.52984,0.240433,-2.67639,-0.0376509,-0.0173237,0.00174298,-45.7776,19.913,5.62094,0.492185,0.458667,0.651408,0.350778
105,3678.62,24,138.0,33.8125,-9.1058,3.28477,1.4706,-9.05913,3.27044,1.79286,0.303586,-0.0286152,-0.000898902,35.7302,-28.4702,-32.9347,0.0525403,0.58263,-0.268345,-0.765358,36.4375,1.10604,9.69119,-0.666142,1.06935,9.84232,-0.299887,-0.00970091,-0.0740196,0.0635288,16.225,-42.323,-13.7559,0.67361,-0.66742,0.255382,0.188626,34.0625,9.43406,0.15452,-3.08474,9.51482,0.240429,-2.67631,0.0101225,0.0124901,-0.0128187,-45.6604,20.0338,4.91205,0.492333,0.458379,0.651417,0.350931
105,3678.63,24,138.0,33.8125,-9.21756,3.32392,1.50728,-9.01354,3.3456,1.76245,0.36376,-0.0369945,-0.00957509,36.2293,-28.373,-33.33,0.0537463,0.582401,-0.269613,-0.765003,36.4375,1.25736,9.69045,-0.702119,1.09925,9.84229,-0.330292,-0.0423256,-0.0674554,0.0604258,16.0809,-41.1568,-13.9045,0.67371,-0.66715,0.255806,0.188652,34.0625,9.39533,0.11711,-3.12349,9.40946,0.210101,-2.72106,-0.0304378,-0.00606872,0.0136836,-45.6701,20.4201,4.76974,0.492374,0.458299,0.65138,0.351048
105,3678.64,24,138.0,33.8125,-9.14118,3.43715,1.50804,-8.95275,3.42065,1.74712,0.318313,-0.0299097,-0.0266519,36.1054,-28.2425,-33.593,0.054809,0.582256,-0.270496,-0.764726,36.4375,1.22496,9.69187,-0.509106,1.06832,9.73675,-0.360637,-0.0277622,-0.0832161,0.0694391,16.3471,-41.4243,-14.1831,0.673738,-0.666903,0.256339,0.1887,34.0625,9.35353,-0.299665,-3.19851,9.43932,-0.00167899,-2.75081,-0.0382785,-0.0353608,-0.0141826,-46.5686,20.5932,4.62454,0.492424,0.458035,0.651458,0.351177
105,3678.65,24,138.0,33.8125,-9.10848,3.47346,1.35446,-9.02797,3.48156,1.70176,0.2854,0.0185788,-0.0363792,36.1039,-28.6142,-32.8033,0.0557225,0.582294,-0.271562,-0.764253,36.4375,1.37085,9.8028,-0.739149,1.15837,9.69125,-0.3462,0.00443832,-0.0786263,0.0515779,15.5715,-41.5249,-13.906,0.673719,-0.666698,0.256894,0.188737,34.0625,9.4675,-0.186792,-3.15945,9.49974,-0.198179,-2.65968,-0.00205258,-0.0480339,-0.0142061,-45.5264,20.0287,5.47986,0.492188,0.458221,0.651621,0.350962
105,3678.66,24,138.0,33.8125,-9.14626,3.28439,1.39302,-8.98326,3.43592,1.68672,0.215208,0.0549592,-0.00687561,36.2303,-28.3732,-33.4612,0.0562836,0.582487,-0.272117,-0.763868,36.4375,1.33473,9.69047,-0.661997,1.18818,9.69124,-0.391718,0.000511899,-0.0667256,0.0333966,15.5738,-41.5249,-14.0469,0.673718,-0.66649,0.257382,0.188811,34.0625,9.50891,0.154046,-3.08397,9.59017,-0.0165856,-2.60021,0.0207891,-0.0268726,-0.0107966,-45.4112,20.5376,5.33784,0.492035,0.458354,0.651719,0.350822
